X;workerid;proliferate.condition;samediff_mirrornorm;samediff;categories;failed_audio;failed_images;failed_video;internal_node_id;response;rt;sequence_id;same_mirror_normal;stimulus;success;time_elapsed;timeout;trial_index;trial_type;view_history;error;language
1;28;condition1;_;;;[];[];[];0.0-0.0;;NA;0;;;TRUE;3780;FALSE;0;preload;;NA;french
2;28;condition1;_;;;;;;0.0-1.0;;44702;1;;;NA;48483;NA;1;instructions;[{'page_index': 0;NA;french
3;28;condition1;_;;;;;;0.0-2.0-0.0;;NA;0;;img2/tools/2.jpg;NA;48704;NA;2;image-keyboard-response;;NA;french
4;28;condition1;_;;;;;;0.0-2.0-1.0;;NA;1;;+;NA;49020;NA;3;html-keyboard-response;;NA;french
5;28;condition1;_;;;;;;0.0-2.0-2.0;;NA;2;;img2/Mtools/2.jpg;NA;49241;NA;4;image-keyboard-response;;NA;french
6;28;condition1;_M;;;;;;0.0-2.0-3.0;s;1401;3;M;Press S if the two images were the same;NA;NA;NA;NA;;;NA;french
7;28;condition1;_;;;;;;0.0-3.0;;2908;3;;;NA;53551;NA;6;instructions;[{'page_index': 0;NA;french
8;28;condition1;_;;;;;;0.0-4.0-0.0;;NA;0;;img2/jap/2.jpg;NA;53794;NA;7;image-keyboard-response;;NA;french
9;28;condition1;_;;;;;;0.0-4.0-1.0;;NA;1;;+;NA;54110;NA;8;html-keyboard-response;;NA;french
10;28;condition1;_;;;;;;0.0-4.0-2.0;;NA;2;;img2/jap/3.jpg;NA;54346;NA;9;image-keyboard-response;;NA;french
11;28;condition1;_T;;;;;;0.0-4.0-3.0;d;653;3;T;Press S if the two images were the same;NA;NA;NA;NA;;;NA;french
12;28;condition1;_;;;;;;0.0-5.0;;2153;5;;;NA;57154;NA;11;instructions;[{'page_index': 0;NA;french
13;28;condition1;_;;;;;;0.0-6.0-0.0;;NA;0;;img2/tools/6.jpg;NA;57370;NA;12;image-keyboard-response;;NA;french
14;28;condition1;_;;;;;;0.0-6.0-1.0;;NA;1;;+;NA;57679;NA;13;html-keyboard-response;;NA;french
15;28;condition1;_;;;;;;0.0-6.0-2.0;;NA;2;;img2/tools/6.jpg;NA;57891;NA;14;image-keyboard-response;;NA;french
16;28;condition1;S_T;S;O;;;;0.0-6.0-3.0;s;451;3;T;Press S if the two images were the same;NA;NA;NA;NA;;;NA;french
17;28;condition1;_;;;;;;0.0-6.0-0.1;;NA;0;;img2/Mjap/2.jpg;NA;58596;NA;16;image-keyboard-response;;NA;french
18;28;condition1;_;;;;;;0.0-6.0-1.1;;NA;1;;+;NA;58910;NA;17;html-keyboard-response;;NA;french
19;28;condition1;_;;;;;;0.0-6.0-2.1;;NA;2;;img2/Mjap/8.jpg;NA;59163;NA;18;image-keyboard-response;;NA;french
20;28;condition1;D_M;D;J;;;;0.0-6.0-3.1;d;433;3;M;Press S if the two images were the same;NA;NA;NA;NA;;;NA;french
21;28;condition1;_;;;;;;0.0-6.0-0.2;;NA;0;;img2/Mfaces/13.jpg;NA;59824;NA;20;image-keyboard-response;;NA;french
22;28;condition1;_;;;;;;0.0-6.0-1.2;;NA;1;;+;NA;60129;NA;21;html-keyboard-response;;NA;french
23;28;condition1;_;;;;;;0.0-6.0-2.2;;NA;2;;img2/Mfaces/10.jpg;NA;60362;NA;22;image-keyboard-response;;NA;french
24;28;condition1;D_M;D;H;;;;0.0-6.0-3.2;d;505;3;M;Press S if the two images were the same;NA;NA;NA;NA;;;NA;french
25;28;condition1;_;;;;;;0.0-6.0-0.3;;NA;0;;img2/faces/10.jpg;NA;61098;NA;24;image-keyboard-response;;NA;french
26;28;condition1;_;;;;;;0.0-6.0-1.3;;NA;1;;+;NA;61412;NA;25;html-keyboard-response;;NA;french
27;28;condition1;_;;;;;;0.0-6.0-2.3;;NA;2;;img2/faces/5.jpg;NA;61641;NA;26;image-keyboard-response;;NA;french
28;28;condition1;D_T;D;H;;;;0.0-6.0-3.3;d;422;3;T;Press S if the two images were the same;NA;NA;NA;NA;;;NA;french
29;28;condition1;_;;;;;;0.0-6.0-0.4;;NA;0;;img2/false/6.jpg;NA;62288;NA;28;image-keyboard-response;;NA;french
30;28;condition1;_;;;;;;0.0-6.0-1.4;;NA;1;;+;NA;62600;NA;29;html-keyboard-response;;NA;french
31;28;condition1;_;;;;;;0.0-6.0-2.4;;NA;2;;img2/false/12.jpg;NA;62847;NA;30;image-keyboard-response;;NA;french
32;28;condition1;D_T;D;M;;;;0.0-6.0-3.4;d;332;3;T;Press S if the two images were the same;NA;NA;NA;NA;;;NA;french
33;28;condition1;_;;;;;;0.0-6.0-0.5;;NA;0;;img2/jap/13.jpg;NA;63428;NA;32;image-keyboard-response;;NA;french
34;28;condition1;_;;;;;;0.0-6.0-1.5;;NA;1;;+;NA;63734;NA;33;html-keyboard-response;;NA;french
35;28;condition1;_;;;;;;0.0-6.0-2.5;;NA;2;;img2/Mjap/13.jpg;NA;63985;NA;34;image-keyboard-response;;NA;french
36;28;condition1;S_M;S;J;;;;0.0-6.0-3.5;s;365;3;M;Press S if the two images were the same;NA;NA;NA;NA;;;NA;french
37;28;condition1;_;;;;;;0.0-6.0-0.6;;NA;0;;img2/tools/10.jpg;NA;64559;NA;36;image-keyboard-response;;NA;french
38;28;condition1;_;;;;;;0.0-6.0-1.6;;NA;1;;+;NA;64873;NA;37;html-keyboard-response;;NA;french
39;28;condition1;_;;;;;;0.0-6.0-2.6;;NA;2;;img2/tools/5.jpg;NA;65088;NA;38;image-keyboard-response;;NA;french
40;28;condition1;D_T;D;O;;;;0.0-6.0-3.6;d;399;3;T;Press S if the two images were the same;NA;NA;NA;NA;;;NA;french
41;28;condition1;_;;;;;;0.0-6.0-0.7;;NA;0;;img2/faces/3.jpg;NA;65707;NA;40;image-keyboard-response;;NA;french
42;28;condition1;_;;;;;;0.0-6.0-1.7;;NA;1;;+;NA;66021;NA;41;html-keyboard-response;;NA;french
43;28;condition1;_;;;;;;0.0-6.0-2.7;;NA;2;;img2/Mfaces/3.jpg;NA;66239;NA;42;image-keyboard-response;;NA;french
44;28;condition1;S_M;S;H;;;;0.0-6.0-3.7;s;386;3;M;Press S if the two images were the same;NA;NA;NA;NA;;;NA;french
45;28;condition1;_;;;;;;0.0-6.0-0.8;;NA;0;;img2/french/5.jpg;NA;66865;NA;44;image-keyboard-response;;NA;french
46;28;condition1;_;;;;;;0.0-6.0-1.8;;NA;1;;+;NA;67174;NA;45;html-keyboard-response;;NA;french
47;28;condition1;_;;;;;;0.0-6.0-2.8;;NA;2;;img2/Mfrench/5.jpg;NA;67415;NA;46;image-keyboard-response;;NA;french
48;28;condition1;S_M;S;R;;;;0.0-6.0-3.8;s;693;3;M;Press S if the two images were the same;NA;NA;NA;NA;;;NA;french
49;28;condition1;_;;;;;;0.0-6.0-0.9;;NA;0;;img2/false/5.jpg;NA;68357;NA;48;image-keyboard-response;;NA;french
50;28;condition1;_;;;;;;0.0-6.0-1.9;;NA;1;;+;NA;68670;NA;49;html-keyboard-response;;NA;french
51;28;condition1;_;;;;;;0.0-6.0-2.9;;NA;2;;img2/false/5.jpg;NA;68878;NA;50;image-keyboard-response;;NA;french
52;28;condition1;S_T;S;M;;;;0.0-6.0-3.9;s;508;3;T;Press S if the two images were the same;NA;NA;NA;NA;;;NA;french
53;28;condition1;_;;;;;;0.0-6.0-0.10;;NA;0;;img2/faces/9.jpg;NA;69614;NA;52;image-keyboard-response;;NA;french
54;28;condition1;_;;;;;;0.0-6.0-1.10;;NA;1;;+;NA;69915;NA;53;html-keyboard-response;;NA;french
55;28;condition1;_;;;;;;0.0-6.0-2.10;;NA;2;;img2/Mfaces/9.jpg;NA;70134;NA;54;image-keyboard-response;;NA;french
56;28;condition1;S_M;S;H;;;;0.0-6.0-3.10;s;441;3;M;Press S if the two images were the same;NA;NA;NA;NA;;;NA;french
57;28;condition1;_;;;;;;0.0-6.0-0.11;;NA;0;;img2/Mfalse/12.jpg;NA;70817;NA;56;image-keyboard-response;;NA;french
58;28;condition1;_;;;;;;0.0-6.0-1.11;;NA;1;;+;NA;71127;NA;57;html-keyboard-response;;NA;french
59;28;condition1;_;;;;;;0.0-6.0-2.11;;NA;2;;img2/Mfalse/3.jpg;NA;71375;NA;58;image-keyboard-response;;NA;french
60;28;condition1;D_M;D;M;;;;0.0-6.0-3.11;d;401;3;M;Press S if the two images were the same;NA;NA;NA;NA;;;NA;french
61;28;condition1;_;;;;;;0.0-6.0-0.12;;NA;0;;img2/faces/6.jpg;NA;71999;NA;60;image-keyboard-response;;NA;french
62;28;condition1;_;;;;;;0.0-6.0-1.12;;NA;1;;+;NA;72304;NA;61;html-keyboard-response;;NA;french
63;28;condition1;_;;;;;;0.0-6.0-2.12;;NA;2;;img2/Mfaces/6.jpg;NA;72526;NA;62;image-keyboard-response;;NA;french
64;28;condition1;S_M;S;H;;;;0.0-6.0-3.12;s;514;3;M;Press S if the two images were the same;NA;NA;NA;NA;;;NA;french
65;28;condition1;_;;;;;;0.0-6.0-0.13;;NA;0;;img2/french/6.jpg;NA;73289;NA;64;image-keyboard-response;;NA;french
66;28;condition1;_;;;;;;0.0-6.0-1.13;;NA;1;;+;NA;73601;NA;65;html-keyboard-response;;NA;french
67;28;condition1;_;;;;;;0.0-6.0-2.13;;NA;2;;img2/french/12.jpg;NA;73842;NA;66;image-keyboard-response;;NA;french
68;28;condition1;D_T;D;R;;;;0.0-6.0-3.13;d;555;3;T;Press S if the two images were the same;NA;NA;NA;NA;;;NA;french
69;28;condition1;_;;;;;;0.0-6.0-0.14;;NA;0;;img2/jap/1.jpg;NA;74644;NA;68;image-keyboard-response;;NA;french
70;28;condition1;_;;;;;;0.0-6.0-1.14;;NA;1;;+;NA;74955;NA;69;html-keyboard-response;;NA;french
71;28;condition1;_;;;;;;0.0-6.0-2.14;;NA;2;;img2/Mjap/1.jpg;NA;75198;NA;70;image-keyboard-response;;NA;french
72;28;condition1;S_M;S;J;;;;0.0-6.0-3.14;s;754;3;M;Press S if the two images were the same;NA;NA;NA;NA;;;NA;french
73;28;condition1;_;;;;;;0.0-6.0-0.15;;NA;0;;img2/Mtools/1.jpg;NA;76178;NA;72;image-keyboard-response;;NA;french
74;28;condition1;_;;;;;;0.0-6.0-1.15;;NA;1;;+;NA;76487;NA;73;html-keyboard-response;;NA;french
75;28;condition1;_;;;;;;0.0-6.0-2.15;;NA;2;;img2/Mtools/10.jpg;NA;76698;NA;74;image-keyboard-response;;NA;french
76;28;condition1;D_M;D;O;;;;0.0-6.0-3.15;d;555;3;M;Press S if the two images were the same;NA;NA;NA;NA;;;NA;french
77;28;condition1;_;;;;;;0.0-6.0-0.16;;NA;0;;img2/Mjap/14.jpg;NA;77491;NA;76;image-keyboard-response;;NA;french
78;28;condition1;_;;;;;;0.0-6.0-1.16;;NA;1;;+;NA;77803;NA;77;html-keyboard-response;;NA;french
79;28;condition1;_;;;;;;0.0-6.0-2.16;;NA;2;;img2/Mjap/7.jpg;NA;78053;NA;78;image-keyboard-response;;NA;french
80;28;condition1;D_M;D;J;;;;0.0-6.0-3.16;s;387;3;M;Press S if the two images were the same;NA;NA;NA;NA;;;NA;french
81;28;condition1;_;;;;;;0.0-6.0-0.17;;NA;0;;img2/jap/2.jpg;NA;78645;NA;80;image-keyboard-response;;NA;french
82;28;condition1;_;;;;;;0.0-6.0-1.17;;NA;1;;+;NA;78961;NA;81;html-keyboard-response;;NA;french
83;28;condition1;_;;;;;;0.0-6.0-2.17;;NA;2;;img2/Mjap/2.jpg;NA;79177;NA;82;image-keyboard-response;;NA;french
84;28;condition1;S_M;S;J;;;;0.0-6.0-3.17;s;510;3;M;Press S if the two images were the same;NA;NA;NA;NA;;;NA;french
85;28;condition1;_;;;;;;0.0-6.0-0.18;;NA;0;;img2/french/4.jpg;NA;79920;NA;84;image-keyboard-response;;NA;french
86;28;condition1;_;;;;;;0.0-6.0-1.18;;NA;1;;+;NA;80233;NA;85;html-keyboard-response;;NA;french
87;28;condition1;_;;;;;;0.0-6.0-2.18;;NA;2;;img2/french/4.jpg;NA;80436;NA;86;image-keyboard-response;;NA;french
88;28;condition1;S_T;S;R;;;;0.0-6.0-3.18;s;529;3;T;Press S if the two images were the same;NA;NA;NA;NA;;;NA;french
89;28;condition1;_;;;;;;0.0-6.0-0.19;;NA;0;;img2/Mtools/14.jpg;NA;81169;NA;88;image-keyboard-response;;NA;french
90;28;condition1;_;;;;;;0.0-6.0-1.19;;NA;1;;+;NA;81478;NA;89;html-keyboard-response;;NA;french
91;28;condition1;_;;;;;;0.0-6.0-2.19;;NA;2;;img2/Mtools/7.jpg;NA;81696;NA;90;image-keyboard-response;;NA;french
92;28;condition1;D_M;D;O;;;;0.0-6.0-3.19;d;444;3;M;Press S if the two images were the same;NA;NA;NA;NA;;;NA;french
93;28;condition1;_;;;;;;0.0-6.0-0.20;;NA;0;;img2/faces/2.jpg;NA;82355;NA;92;image-keyboard-response;;NA;french
94;28;condition1;_;;;;;;0.0-6.0-1.20;;NA;1;;+;NA;82666;NA;93;html-keyboard-response;;NA;french
95;28;condition1;_;;;;;;0.0-6.0-2.20;;NA;2;;img2/Mfaces/2.jpg;NA;82884;NA;94;image-keyboard-response;;NA;french
96;28;condition1;S_M;S;H;;;;0.0-6.0-3.20;s;363;3;M;Press S if the two images were the same;NA;NA;NA;NA;;;NA;french
97;28;condition1;_;;;;;;0.0-6.0-0.21;;NA;0;;img2/faces/8.jpg;NA;83467;NA;96;image-keyboard-response;;NA;french
98;28;condition1;_;;;;;;0.0-6.0-1.21;;NA;1;;+;NA;83782;NA;97;html-keyboard-response;;NA;french
99;28;condition1;_;;;;;;0.0-6.0-2.21;;NA;2;;img2/faces/8.jpg;NA;83997;NA;98;image-keyboard-response;;NA;french
100;28;condition1;S_T;S;H;;;;0.0-6.0-3.21;s;352;3;T;Press S if the two images were the same;NA;NA;NA;NA;;;NA;french
101;28;condition1;_;;;;;;0.0-6.0-0.22;;NA;0;;img2/french/5.jpg;NA;84556;NA;100;image-keyboard-response;;NA;french
102;28;condition1;_;;;;;;0.0-6.0-1.22;;NA;1;;+;NA;84864;NA;101;html-keyboard-response;;NA;french
103;28;condition1;_;;;;;;0.0-6.0-2.22;;NA;2;;img2/french/6.jpg;NA;85073;NA;102;image-keyboard-response;;NA;french
104;28;condition1;D_T;D;R;;;;0.0-6.0-3.22;d;511;3;T;Press S if the two images were the same;NA;NA;NA;NA;;;NA;french
105;28;condition1;_;;;;;;0.0-6.0-0.23;;NA;0;;img2/faces/5.jpg;NA;85797;NA;104;image-keyboard-response;;NA;french
106;28;condition1;_;;;;;;0.0-6.0-1.23;;NA;1;;+;NA;86104;NA;105;html-keyboard-response;;NA;french
107;28;condition1;_;;;;;;0.0-6.0-2.23;;NA;2;;img2/Mfaces/5.jpg;NA;86347;NA;106;image-keyboard-response;;NA;french
108;28;condition1;S_M;S;H;;;;0.0-6.0-3.23;s;429;3;M;Press S if the two images were the same;NA;NA;NA;NA;;;NA;french
109;28;condition1;_;;;;;;0.0-6.0-0.24;;NA;0;;img2/faces/10.jpg;NA;86989;NA;108;image-keyboard-response;;NA;french
110;28;condition1;_;;;;;;0.0-6.0-1.24;;NA;1;;+;NA;87304;NA;109;html-keyboard-response;;NA;french
111;28;condition1;_;;;;;;0.0-6.0-2.24;;NA;2;;img2/Mfaces/10.jpg;NA;87515;NA;110;image-keyboard-response;;NA;french
112;28;condition1;S_M;S;H;;;;0.0-6.0-3.24;s;405;3;M;Press S if the two images were the same;NA;NA;NA;NA;;;NA;french
113;28;condition1;_;;;;;;0.0-6.0-0.25;;NA;0;;img2/jap/11.jpg;NA;88163;NA;112;image-keyboard-response;;NA;french
114;28;condition1;_;;;;;;0.0-6.0-1.25;;NA;1;;+;NA;88465;NA;113;html-keyboard-response;;NA;french
115;28;condition1;_;;;;;;0.0-6.0-2.25;;NA;2;;img2/jap/13.jpg;NA;88668;NA;114;image-keyboard-response;;NA;french
116;28;condition1;D_T;D;J;;;;0.0-6.0-3.25;d;469;3;T;Press S if the two images were the same;NA;NA;NA;NA;;;NA;french
117;28;condition1;_;;;;;;0.0-6.0-0.26;;NA;0;;img2/tools/13.jpg;NA;89355;NA;116;image-keyboard-response;;NA;french
118;28;condition1;_;;;;;;0.0-6.0-1.26;;NA;1;;+;NA;89665;NA;117;html-keyboard-response;;NA;french
119;28;condition1;_;;;;;;0.0-6.0-2.26;;NA;2;;img2/tools/13.jpg;NA;89874;NA;118;image-keyboard-response;;NA;french
120;28;condition1;S_T;S;O;;;;0.0-6.0-3.26;s;381;3;T;Press S if the two images were the same;NA;NA;NA;NA;;;NA;french
121;28;condition1;_;;;;;;0.0-6.0-0.27;;NA;0;;img2/french/3.jpg;NA;90491;NA;120;image-keyboard-response;;NA;french
122;28;condition1;_;;;;;;0.0-6.0-1.27;;NA;1;;+;NA;90799;NA;121;html-keyboard-response;;NA;french
123;28;condition1;_;;;;;;0.0-6.0-2.27;;NA;2;;img2/french/2.jpg;NA;91044;NA;122;image-keyboard-response;;NA;french
124;28;condition1;D_T;D;R;;;;0.0-6.0-3.27;d;506;3;T;Press S if the two images were the same;NA;NA;NA;NA;;;NA;french
125;28;condition1;_;;;;;;0.0-6.0-0.28;;NA;0;;img2/false/14.jpg;NA;91787;NA;124;image-keyboard-response;;NA;french
126;28;condition1;_;;;;;;0.0-6.0-1.28;;NA;1;;+;NA;92099;NA;125;html-keyboard-response;;NA;french
127;28;condition1;_;;;;;;0.0-6.0-2.28;;NA;2;;img2/false/14.jpg;NA;92316;NA;126;image-keyboard-response;;NA;french
128;28;condition1;S_T;S;M;;;;0.0-6.0-3.28;s;673;3;T;Press S if the two images were the same;NA;NA;NA;NA;;;NA;french
129;28;condition1;_;;;;;;0.0-6.0-0.29;;NA;0;;img2/tools/7.jpg;NA;93203;NA;128;image-keyboard-response;;NA;french
130;28;condition1;_;;;;;;0.0-6.0-1.29;;NA;1;;+;NA;93509;NA;129;html-keyboard-response;;NA;french
131;28;condition1;_;;;;;;0.0-6.0-2.29;;NA;2;;img2/tools/6.jpg;NA;93712;NA;130;image-keyboard-response;;NA;french
132;28;condition1;D_T;D;O;;;;0.0-6.0-3.29;d;394;3;T;Press S if the two images were the same;NA;NA;NA;NA;;;NA;french
133;28;condition1;_;;;;;;0.0-6.0-0.30;;NA;0;;img2/tools/2.jpg;NA;94313;NA;132;image-keyboard-response;;NA;french
134;28;condition1;_;;;;;;0.0-6.0-1.30;;NA;1;;+;NA;94614;NA;133;html-keyboard-response;;NA;french
135;28;condition1;_;;;;;;0.0-6.0-2.30;;NA;2;;img2/tools/8.jpg;NA;94817;NA;134;image-keyboard-response;;NA;french
136;28;condition1;D_T;D;O;;;;0.0-6.0-3.30;d;472;3;T;Press S if the two images were the same;NA;NA;NA;NA;;;NA;french
137;28;condition1;_;;;;;;0.0-6.0-0.31;;NA;0;;img2/french/8.jpg;NA;95535;NA;136;image-keyboard-response;;NA;french
138;28;condition1;_;;;;;;0.0-6.0-1.31;;NA;1;;+;NA;95843;NA;137;html-keyboard-response;;NA;french
139;28;condition1;_;;;;;;0.0-6.0-2.31;;NA;2;;img2/french/12.jpg;NA;96056;NA;138;image-keyboard-response;;NA;french
140;28;condition1;D_T;D;R;;;;0.0-6.0-3.31;d;595;3;T;Press S if the two images were the same;NA;NA;NA;NA;;;NA;french
141;28;condition1;_;;;;;;0.0-6.0-0.32;;NA;0;;img2/jap/5.jpg;NA;96901;NA;140;image-keyboard-response;;NA;french
142;28;condition1;_;;;;;;0.0-6.0-1.32;;NA;1;;+;NA;97204;NA;141;html-keyboard-response;;NA;french
143;28;condition1;_;;;;;;0.0-6.0-2.32;;NA;2;;img2/jap/6.jpg;NA;97452;NA;142;image-keyboard-response;;NA;french
144;28;condition1;D_T;D;J;;;;0.0-6.0-3.32;d;467;3;T;Press S if the two images were the same;NA;NA;NA;NA;;;NA;french
145;28;condition1;_;;;;;;0.0-6.0-0.33;;NA;0;;img2/tools/14.jpg;NA;98134;NA;144;image-keyboard-response;;NA;french
146;28;condition1;_;;;;;;0.0-6.0-1.33;;NA;1;;+;NA;98435;NA;145;html-keyboard-response;;NA;french
147;28;condition1;_;;;;;;0.0-6.0-2.33;;NA;2;;img2/Mtools/14.jpg;NA;98651;NA;146;image-keyboard-response;;NA;french
148;28;condition1;S_M;S;O;;;;0.0-6.0-3.33;s;350;3;M;Press S if the two images were the same;NA;NA;NA;NA;;;NA;french
149;28;condition1;_;;;;;;0.0-6.0-0.34;;NA;0;;img2/Mjap/1.jpg;NA;99202;NA;148;image-keyboard-response;;NA;french
150;28;condition1;_;;;;;;0.0-6.0-1.34;;NA;1;;+;NA;99513;NA;149;html-keyboard-response;;NA;french
151;28;condition1;_;;;;;;0.0-6.0-2.34;;NA;2;;img2/Mjap/10.jpg;NA;99753;NA;150;image-keyboard-response;;NA;french
152;28;condition1;D_M;D;J;;;;0.0-6.0-3.34;d;410;3;M;Press S if the two images were the same;NA;NA;NA;NA;;;NA;french
153;28;condition1;_;;;;;;0.0-6.0-0.35;;NA;0;;img2/jap/9.jpg;NA;100411;NA;152;image-keyboard-response;;NA;french
154;28;condition1;_;;;;;;0.0-6.0-1.35;;NA;1;;+;NA;100719;NA;153;html-keyboard-response;;NA;french
155;28;condition1;_;;;;;;0.0-6.0-2.35;;NA;2;;img2/jap/13.jpg;NA;100924;NA;154;image-keyboard-response;;NA;french
156;28;condition1;D_T;D;J;;;;0.0-6.0-3.35;d;652;3;T;Press S if the two images were the same;NA;NA;NA;NA;;;NA;french
157;28;condition1;_;;;;;;0.0-6.0-0.36;;NA;0;;img2/Mfalse/9.jpg;NA;101814;NA;156;image-keyboard-response;;NA;french
158;28;condition1;_;;;;;;0.0-6.0-1.36;;NA;1;;+;NA;102124;NA;157;html-keyboard-response;;NA;french
159;28;condition1;_;;;;;;0.0-6.0-2.36;;NA;2;;img2/Mfalse/13.jpg;NA;102370;NA;158;image-keyboard-response;;NA;french
160;28;condition1;D_M;D;M;;;;0.0-6.0-3.36;d;468;3;M;Press S if the two images were the same;NA;NA;NA;NA;;;NA;french
161;28;condition1;_;;;;;;0.0-6.0-0.37;;NA;0;;img2/jap/14.jpg;NA;103089;NA;160;image-keyboard-response;;NA;french
162;28;condition1;_;;;;;;0.0-6.0-1.37;;NA;1;;+;NA;103395;NA;161;html-keyboard-response;;NA;french
163;28;condition1;_;;;;;;0.0-6.0-2.37;;NA;2;;img2/jap/14.jpg;NA;103596;NA;162;image-keyboard-response;;NA;french
164;28;condition1;S_T;S;J;;;;0.0-6.0-3.37;s;351;3;T;Press S if the two images were the same;NA;NA;NA;NA;;;NA;french
165;28;condition1;_;;;;;;0.0-6.0-0.38;;NA;0;;img2/false/5.jpg;NA;104159;NA;164;image-keyboard-response;;NA;french
166;28;condition1;_;;;;;;0.0-6.0-1.38;;NA;1;;+;NA;104460;NA;165;html-keyboard-response;;NA;french
167;28;condition1;_;;;;;;0.0-6.0-2.38;;NA;2;;img2/false/6.jpg;NA;104670;NA;166;image-keyboard-response;;NA;french
168;28;condition1;D_T;D;M;;;;0.0-6.0-3.38;d;700;3;T;Press S if the two images were the same;NA;NA;NA;NA;;;NA;french
169;28;condition1;_;;;;;;0.0-6.0-0.39;;NA;0;;img2/Mjap/5.jpg;NA;105623;NA;168;image-keyboard-response;;NA;french
170;28;condition1;_;;;;;;0.0-6.0-1.39;;NA;1;;+;NA;105924;NA;169;html-keyboard-response;;NA;french
171;28;condition1;_;;;;;;0.0-6.0-2.39;;NA;2;;img2/Mjap/6.jpg;NA;106181;NA;170;image-keyboard-response;;NA;french
172;28;condition1;D_M;D;J;;;;0.0-6.0-3.39;d;416;3;M;Press S if the two images were the same;NA;NA;NA;NA;;;NA;french
173;28;condition1;_;;;;;;0.0-6.0-0.40;;NA;0;;img2/faces/7.jpg;NA;106830;NA;172;image-keyboard-response;;NA;french
174;28;condition1;_;;;;;;0.0-6.0-1.40;;NA;1;;+;NA;107131;NA;173;html-keyboard-response;;NA;french
175;28;condition1;_;;;;;;0.0-6.0-2.40;;NA;2;;img2/faces/7.jpg;NA;107339;NA;174;image-keyboard-response;;NA;french
176;28;condition1;S_T;S;H;;;;0.0-6.0-3.40;s;393;3;T;Press S if the two images were the same;NA;NA;NA;NA;;;NA;french
177;28;condition1;_;;;;;;0.0-6.0-0.41;;NA;0;;img2/false/9.jpg;NA;107972;NA;176;image-keyboard-response;;NA;french
178;28;condition1;_;;;;;;0.0-6.0-1.41;;NA;1;;+;NA;108281;NA;177;html-keyboard-response;;NA;french
179;28;condition1;_;;;;;;0.0-6.0-2.41;;NA;2;;img2/false/13.jpg;NA;108523;NA;178;image-keyboard-response;;NA;french
180;28;condition1;D_T;D;M;;;;0.0-6.0-3.41;d;390;3;T;Press S if the two images were the same;NA;NA;NA;NA;;;NA;french
181;28;condition1;_;;;;;;0.0-6.0-0.42;;NA;0;;img2/Mjap/4.jpg;NA;109172;NA;180;image-keyboard-response;;NA;french
182;28;condition1;_;;;;;;0.0-6.0-1.42;;NA;1;;+;NA;109485;NA;181;html-keyboard-response;;NA;french
183;28;condition1;_;;;;;;0.0-6.0-2.42;;NA;2;;img2/Mjap/8.jpg;NA;109698;NA;182;image-keyboard-response;;NA;french
184;28;condition1;D_M;D;J;;;;0.0-6.0-3.42;d;438;3;M;Press S if the two images were the same;NA;NA;NA;NA;;;NA;french
185;28;condition1;_;;;;;;0.0-6.0-0.43;;NA;0;;img2/Mfaces/6.jpg;NA;110345;NA;184;image-keyboard-response;;NA;french
186;28;condition1;_;;;;;;0.0-6.0-1.43;;NA;1;;+;NA;110657;NA;185;html-keyboard-response;;NA;french
187;28;condition1;_;;;;;;0.0-6.0-2.43;;NA;2;;img2/Mfaces/12.jpg;NA;110878;NA;186;image-keyboard-response;;NA;french
188;28;condition1;D_M;D;H;;;;0.0-6.0-3.43;d;487;3;M;Press S if the two images were the same;NA;NA;NA;NA;;;NA;french
189;28;condition1;_;;;;;;0.0-6.0-0.44;;NA;0;;img2/faces/1.jpg;NA;111578;NA;188;image-keyboard-response;;NA;french
190;28;condition1;_;;;;;;0.0-6.0-1.44;;NA;1;;+;NA;111887;NA;189;html-keyboard-response;;NA;french
191;28;condition1;_;;;;;;0.0-6.0-2.44;;NA;2;;img2/faces/10.jpg;NA;112095;NA;190;image-keyboard-response;;NA;french
192;28;condition1;D_T;D;H;;;;0.0-6.0-3.44;d;378;3;T;Press S if the two images were the same;NA;NA;NA;NA;;;NA;french
193;28;condition1;_;;;;;;0.0-6.0-0.45;;NA;0;;img2/faces/2.jpg;NA;112682;NA;192;image-keyboard-response;;NA;french
194;28;condition1;_;;;;;;0.0-6.0-1.45;;NA;1;;+;NA;112987;NA;193;html-keyboard-response;;NA;french
195;28;condition1;_;;;;;;0.0-6.0-2.45;;NA;2;;img2/faces/2.jpg;NA;113198;NA;194;image-keyboard-response;;NA;french
196;28;condition1;S_T;S;H;;;;0.0-6.0-3.45;s;297;3;T;Press S if the two images were the same;NA;NA;NA;NA;;;NA;french
197;28;condition1;_;;;;;;0.0-6.0-0.46;;NA;0;;img2/Mfalse/6.jpg;NA;113737;NA;196;image-keyboard-response;;NA;french
198;28;condition1;_;;;;;;0.0-6.0-1.46;;NA;1;;+;NA;114046;NA;197;html-keyboard-response;;NA;french
199;28;condition1;_;;;;;;0.0-6.0-2.46;;NA;2;;img2/Mfalse/12.jpg;NA;114259;NA;198;image-keyboard-response;;NA;french
200;28;condition1;D_M;D;M;;;;0.0-6.0-3.46;d;348;3;M;Press S if the two images were the same;NA;NA;NA;NA;;;NA;french
201;28;condition1;_;;;;;;0.0-6.0-0.47;;NA;0;;img2/false/14.jpg;NA;114808;NA;200;image-keyboard-response;;NA;french
202;28;condition1;_;;;;;;0.0-6.0-1.47;;NA;1;;+;NA;115116;NA;201;html-keyboard-response;;NA;french
203;28;condition1;_;;;;;;0.0-6.0-2.47;;NA;2;;img2/false/7.jpg;NA;115358;NA;202;image-keyboard-response;;NA;french
204;28;condition1;D_T;D;M;;;;0.0-6.0-3.47;d;469;3;T;Press S if the two images were the same;NA;NA;NA;NA;;;NA;french
205;28;condition1;_;;;;;;0.0-6.0-0.48;;NA;0;;img2/Mjap/9.jpg;NA;116075;NA;204;image-keyboard-response;;NA;french
206;28;condition1;_;;;;;;0.0-6.0-1.48;;NA;1;;+;NA;116379;NA;205;html-keyboard-response;;NA;french
207;28;condition1;_;;;;;;0.0-6.0-2.48;;NA;2;;img2/Mjap/13.jpg;NA;116592;NA;206;image-keyboard-response;;NA;french
208;28;condition1;D_M;D;J;;;;0.0-6.0-3.48;d;398;3;M;Press S if the two images were the same;NA;NA;NA;NA;;;NA;french
209;28;condition1;_;;;;;;0.0-6.0-0.49;;NA;0;;img2/tools/1.jpg;NA;117216;NA;208;image-keyboard-response;;NA;french
210;28;condition1;_;;;;;;0.0-6.0-1.49;;NA;1;;+;NA;117520;NA;209;html-keyboard-response;;NA;french
211;28;condition1;_;;;;;;0.0-6.0-2.49;;NA;2;;img2/tools/10.jpg;NA;117735;NA;210;image-keyboard-response;;NA;french
212;28;condition1;D_T;D;O;;;;0.0-6.0-3.49;d;445;3;T;Press S if the two images were the same;NA;NA;NA;NA;;;NA;french
213;28;condition1;_;;;;;;0.0-6.0-0.50;;NA;0;;img2/Mtools/4.jpg;NA;118389;NA;212;image-keyboard-response;;NA;french
214;28;condition1;_;;;;;;0.0-6.0-1.50;;NA;1;;+;NA;118701;NA;213;html-keyboard-response;;NA;french
215;28;condition1;_;;;;;;0.0-6.0-2.50;;NA;2;;img2/Mtools/8.jpg;NA;118918;NA;214;image-keyboard-response;;NA;french
216;28;condition1;D_M;D;O;;;;0.0-6.0-3.50;d;377;3;M;Press S if the two images were the same;NA;NA;NA;NA;;;NA;french
217;28;condition1;_;;;;;;0.0-6.0-0.51;;NA;0;;img2/french/6.jpg;NA;119497;NA;216;image-keyboard-response;;NA;french
218;28;condition1;_;;;;;;0.0-6.0-1.51;;NA;1;;+;NA;119801;NA;217;html-keyboard-response;;NA;french
219;28;condition1;_;;;;;;0.0-6.0-2.51;;NA;2;;img2/Mfrench/6.jpg;NA;120043;NA;218;image-keyboard-response;;NA;french
220;28;condition1;S_M;S;R;;;;0.0-6.0-3.51;s;442;3;M;Press S if the two images were the same;NA;NA;NA;NA;;;NA;french
221;28;condition1;_;;;;;;0.0-6.0-0.52;;NA;0;;img2/faces/5.jpg;NA;120697;NA;220;image-keyboard-response;;NA;french
222;28;condition1;_;;;;;;0.0-6.0-1.52;;NA;1;;+;NA;121002;NA;221;html-keyboard-response;;NA;french
223;28;condition1;_;;;;;;0.0-6.0-2.52;;NA;2;;img2/faces/6.jpg;NA;121210;NA;222;image-keyboard-response;;NA;french
224;28;condition1;D_T;D;H;;;;0.0-6.0-3.52;d;326;3;T;Press S if the two images were the same;NA;NA;NA;NA;;;NA;french
225;28;condition1;_;;;;;;0.0-6.0-0.53;;NA;0;;img2/tools/4.jpg;NA;121760;NA;224;image-keyboard-response;;NA;french
226;28;condition1;_;;;;;;0.0-6.0-1.53;;NA;1;;+;NA;122067;NA;225;html-keyboard-response;;NA;french
227;28;condition1;_;;;;;;0.0-6.0-2.53;;NA;2;;img2/Mtools/4.jpg;NA;122270;NA;226;image-keyboard-response;;NA;french
228;28;condition1;S_M;S;O;;;;0.0-6.0-3.53;s;324;3;M;Press S if the two images were the same;NA;NA;NA;NA;;;NA;french
229;28;condition1;_;;;;;;0.0-6.0-0.54;;NA;0;;img2/false/1.jpg;NA;122835;NA;228;image-keyboard-response;;NA;french
230;28;condition1;_;;;;;;0.0-6.0-1.54;;NA;1;;+;NA;123140;NA;229;html-keyboard-response;;NA;french
231;28;condition1;_;;;;;;0.0-6.0-2.54;;NA;2;;img2/false/10.jpg;NA;123378;NA;230;image-keyboard-response;;NA;french
232;28;condition1;D_T;D;M;;;;0.0-6.0-3.54;d;404;3;T;Press S if the two images were the same;NA;NA;NA;NA;;;NA;french
233;28;condition1;_;;;;;;0.0-6.0-0.55;;NA;0;;img2/faces/10.jpg;NA;123987;NA;232;image-keyboard-response;;NA;french
234;28;condition1;_;;;;;;0.0-6.0-1.55;;NA;1;;+;NA;124291;NA;233;html-keyboard-response;;NA;french
235;28;condition1;_;;;;;;0.0-6.0-2.55;;NA;2;;img2/faces/10.jpg;NA;124503;NA;234;image-keyboard-response;;NA;french
236;28;condition1;S_T;S;H;;;;0.0-6.0-3.55;s;336;3;T;Press S if the two images were the same;NA;NA;NA;NA;;;NA;french
237;28;condition1;_;;;;;;0.0-6.0-0.56;;NA;0;;img2/faces/8.jpg;NA;125042;NA;236;image-keyboard-response;;NA;french
238;28;condition1;_;;;;;;0.0-6.0-1.56;;NA;1;;+;NA;125354;NA;237;html-keyboard-response;;NA;french
239;28;condition1;_;;;;;;0.0-6.0-2.56;;NA;2;;img2/Mfaces/8.jpg;NA;125567;NA;238;image-keyboard-response;;NA;french
240;28;condition1;S_M;S;H;;;;0.0-6.0-3.56;s;384;3;M;Press S if the two images were the same;NA;NA;NA;NA;;;NA;french
241;28;condition1;_;;;;;;0.0-6.0-0.57;;NA;0;;img2/false/4.jpg;NA;126188;NA;240;image-keyboard-response;;NA;french
242;28;condition1;_;;;;;;0.0-6.0-1.57;;NA;1;;+;NA;126496;NA;241;html-keyboard-response;;NA;french
243;28;condition1;_;;;;;;0.0-6.0-2.57;;NA;2;;img2/false/4.jpg;NA;126712;NA;242;image-keyboard-response;;NA;french
244;28;condition1;S_T;S;M;;;;0.0-6.0-3.57;s;270;3;T;Press S if the two images were the same;NA;NA;NA;NA;;;NA;french
245;28;condition1;_;;;;;;0.0-6.0-0.58;;NA;0;;img2/false/13.jpg;NA;127196;NA;244;image-keyboard-response;;NA;french
246;28;condition1;_;;;;;;0.0-6.0-1.58;;NA;1;;+;NA;127505;NA;245;html-keyboard-response;;NA;french
247;28;condition1;_;;;;;;0.0-6.0-2.58;;NA;2;;img2/Mfalse/13.jpg;NA;127713;NA;246;image-keyboard-response;;NA;french
248;28;condition1;S_M;S;M;;;;0.0-6.0-3.58;d;406;3;M;Press S if the two images were the same;NA;NA;NA;NA;;;NA;french
249;28;condition1;_;;;;;;0.0-6.0-0.59;;NA;0;;img2/jap/7.jpg;NA;128362;NA;248;image-keyboard-response;;NA;french
250;28;condition1;_;;;;;;0.0-6.0-1.59;;NA;1;;+;NA;128675;NA;249;html-keyboard-response;;NA;french
251;28;condition1;_;;;;;;0.0-6.0-2.59;;NA;2;;img2/jap/6.jpg;NA;128885;NA;250;image-keyboard-response;;NA;french
252;28;condition1;D_T;D;J;;;;0.0-6.0-3.59;d;430;3;T;Press S if the two images were the same;NA;NA;NA;NA;;;NA;french
253;28;condition1;_;;;;;;0.0-6.0-0.60;;NA;0;;img2/Mfaces/4.jpg;NA;129531;NA;252;image-keyboard-response;;NA;french
254;28;condition1;_;;;;;;0.0-6.0-1.60;;NA;1;;+;NA;129836;NA;253;html-keyboard-response;;NA;french
255;28;condition1;_;;;;;;0.0-6.0-2.60;;NA;2;;img2/Mfaces/8.jpg;NA;130039;NA;254;image-keyboard-response;;NA;french
256;28;condition1;D_M;D;H;;;;0.0-6.0-3.60;d;425;3;M;Press S if the two images were the same;NA;NA;NA;NA;;;NA;french
257;28;condition1;_;;;;;;0.0-6.0-0.61;;NA;0;;img2/french/5.jpg;NA;130673;NA;256;image-keyboard-response;;NA;french
258;28;condition1;_;;;;;;0.0-6.0-1.61;;NA;1;;+;NA;130986;NA;257;html-keyboard-response;;NA;french
259;28;condition1;_;;;;;;0.0-6.0-2.61;;NA;2;;img2/french/5.jpg;NA;131198;NA;258;image-keyboard-response;;NA;french
260;28;condition1;S_T;S;R;;;;0.0-6.0-3.61;s;452;3;T;Press S if the two images were the same;NA;NA;NA;NA;;;NA;french
261;28;condition1;_;;;;;;0.0-6.0-0.62;;NA;0;;img2/french/3.jpg;NA;131866;NA;260;image-keyboard-response;;NA;french
262;28;condition1;_;;;;;;0.0-6.0-1.62;;NA;1;;+;NA;132178;NA;261;html-keyboard-response;;NA;french
263;28;condition1;_;;;;;;0.0-6.0-2.62;;NA;2;;img2/french/3.jpg;NA;132398;NA;262;image-keyboard-response;;NA;french
264;28;condition1;S_T;S;R;;;;0.0-6.0-3.62;s;353;3;T;Press S if the two images were the same;NA;NA;NA;NA;;;NA;french
265;28;condition1;_;;;;;;0.0-6.0-0.63;;NA;0;;img2/false/14.jpg;NA;132965;NA;264;image-keyboard-response;;NA;french
266;28;condition1;_;;;;;;0.0-6.0-1.63;;NA;1;;+;NA;133278;NA;265;html-keyboard-response;;NA;french
267;28;condition1;_;;;;;;0.0-6.0-2.63;;NA;2;;img2/Mfalse/14.jpg;NA;133526;NA;266;image-keyboard-response;;NA;french
268;28;condition1;S_M;S;M;;;;0.0-6.0-3.63;d;570;3;M;Press S if the two images were the same;NA;NA;NA;NA;;;NA;french
269;28;condition1;_;;;;;;0.0-6.0-0.64;;NA;0;;img2/faces/7.jpg;NA;134303;NA;268;image-keyboard-response;;NA;french
270;28;condition1;_;;;;;;0.0-6.0-1.64;;NA;1;;+;NA;134616;NA;269;html-keyboard-response;;NA;french
271;28;condition1;_;;;;;;0.0-6.0-2.64;;NA;2;;img2/faces/6.jpg;NA;134820;NA;270;image-keyboard-response;;NA;french
272;28;condition1;D_T;D;H;;;;0.0-6.0-3.64;d;486;3;T;Press S if the two images were the same;NA;NA;NA;NA;;;NA;french
273;28;condition1;_;;;;;;0.0-6.0-0.65;;NA;0;;img2/false/12.jpg;NA;135520;NA;272;image-keyboard-response;;NA;french
274;28;condition1;_;;;;;;0.0-6.0-1.65;;NA;1;;+;NA;135824;NA;273;html-keyboard-response;;NA;french
275;28;condition1;_;;;;;;0.0-6.0-2.65;;NA;2;;img2/false/3.jpg;NA;136070;NA;274;image-keyboard-response;;NA;french
276;28;condition1;D_T;D;M;;;;0.0-6.0-3.65;d;487;3;T;Press S if the two images were the same;NA;NA;NA;NA;;;NA;french
277;28;condition1;_;;;;;;0.0-6.0-0.66;;NA;0;;img2/jap/7.jpg;NA;136770;NA;276;image-keyboard-response;;NA;french
278;28;condition1;_;;;;;;0.0-6.0-1.66;;NA;1;;+;NA;137083;NA;277;html-keyboard-response;;NA;french
279;28;condition1;_;;;;;;0.0-6.0-2.66;;NA;2;;img2/Mjap/7.jpg;NA;137296;NA;278;image-keyboard-response;;NA;french
280;28;condition1;S_M;S;J;;;;0.0-6.0-3.66;s;338;3;M;Press S if the two images were the same;NA;NA;NA;NA;;;NA;french
281;28;condition1;_;;;;;;0.0-6.0-0.67;;NA;0;;img2/jap/6.jpg;NA;137846;NA;280;image-keyboard-response;;NA;french
282;28;condition1;_;;;;;;0.0-6.0-1.67;;NA;1;;+;NA;138151;NA;281;html-keyboard-response;;NA;french
283;28;condition1;_;;;;;;0.0-6.0-2.67;;NA;2;;img2/jap/6.jpg;NA;138363;NA;282;image-keyboard-response;;NA;french
284;28;condition1;S_T;S;J;;;;0.0-6.0-3.67;s;344;3;T;Press S if the two images were the same;NA;NA;NA;NA;;;NA;french
285;28;condition1;_;;;;;;0.0-6.0-0.68;;NA;0;;img2/Mtools/3.jpg;NA;138923;NA;284;image-keyboard-response;;NA;french
286;28;condition1;_;;;;;;0.0-6.0-1.68;;NA;1;;+;NA;139234;NA;285;html-keyboard-response;;NA;french
287;28;condition1;_;;;;;;0.0-6.0-2.68;;NA;2;;img2/Mtools/2.jpg;NA;139438;NA;286;image-keyboard-response;;NA;french
288;28;condition1;D_M;D;O;;;;0.0-6.0-3.68;d;376;3;M;Press S if the two images were the same;NA;NA;NA;NA;;;NA;french
289;28;condition1;_;;;;;;0.0-6.0-0.69;;NA;0;;img2/faces/14.jpg;NA;140043;NA;288;image-keyboard-response;;NA;french
290;28;condition1;_;;;;;;0.0-6.0-1.69;;NA;1;;+;NA;140354;NA;289;html-keyboard-response;;NA;french
291;28;condition1;_;;;;;;0.0-6.0-2.69;;NA;2;;img2/faces/7.jpg;NA;140558;NA;290;image-keyboard-response;;NA;french
292;28;condition1;D_T;D;H;;;;0.0-6.0-3.69;d;521;3;T;Press S if the two images were the same;NA;NA;NA;NA;;;NA;french
293;28;condition1;_;;;;;;0.0-6.0-0.70;;NA;0;;img2/Mfrench/2.jpg;NA;141335;NA;292;image-keyboard-response;;NA;french
294;28;condition1;_;;;;;;0.0-6.0-1.70;;NA;1;;+;NA;141646;NA;293;html-keyboard-response;;NA;french
295;28;condition1;_;;;;;;0.0-6.0-2.70;;NA;2;;img2/Mfrench/8.jpg;NA;141898;NA;294;image-keyboard-response;;NA;french
296;28;condition1;D_M;D;R;;;;0.0-6.0-3.70;d;693;3;M;Press S if the two images were the same;NA;NA;NA;NA;;;NA;french
297;28;condition1;_;;;;;;0.0-6.0-0.71;;NA;0;;img2/tools/8.jpg;NA;142798;NA;296;image-keyboard-response;;NA;french
298;28;condition1;_;;;;;;0.0-6.0-1.71;;NA;1;;+;NA;143106;NA;297;html-keyboard-response;;NA;french
299;28;condition1;_;;;;;;0.0-6.0-2.71;;NA;2;;img2/Mtools/8.jpg;NA;143322;NA;298;image-keyboard-response;;NA;french
300;28;condition1;S_M;S;O;;;;0.0-6.0-3.71;s;359;3;M;Press S if the two images were the same;NA;NA;NA;NA;;;NA;french
301;28;condition1;_;;;;;;0.0-6.0-0.72;;NA;0;;img2/Mtools/2.jpg;NA;143885;NA;300;image-keyboard-response;;NA;french
302;28;condition1;_;;;;;;0.0-6.0-1.72;;NA;1;;+;NA;144195;NA;301;html-keyboard-response;;NA;french
303;28;condition1;_;;;;;;0.0-6.0-2.72;;NA;2;;img2/Mtools/8.jpg;NA;144411;NA;302;image-keyboard-response;;NA;french
304;28;condition1;D_M;D;O;;;;0.0-6.0-3.72;d;508;3;M;Press S if the two images were the same;NA;NA;NA;NA;;;NA;french
305;28;condition1;_;;;;;;0.0-6.0-0.73;;NA;0;;img2/tools/11.jpg;NA;145136;NA;304;image-keyboard-response;;NA;french
306;28;condition1;_;;;;;;0.0-6.0-1.73;;NA;1;;+;NA;145438;NA;305;html-keyboard-response;;NA;french
307;28;condition1;_;;;;;;0.0-6.0-2.73;;NA;2;;img2/Mtools/11.jpg;NA;145660;NA;306;image-keyboard-response;;NA;french
308;28;condition1;S_M;S;O;;;;0.0-6.0-3.73;s;322;3;M;Press S if the two images were the same;NA;NA;NA;NA;;;NA;french
309;28;condition1;_;;;;;;0.0-6.0-0.74;;NA;0;;img2/false/7.jpg;NA;146188;NA;308;image-keyboard-response;;NA;french
310;28;condition1;_;;;;;;0.0-6.0-1.74;;NA;1;;+;NA;146492;NA;309;html-keyboard-response;;NA;french
311;28;condition1;_;;;;;;0.0-6.0-2.74;;NA;2;;img2/false/7.jpg;NA;146700;NA;310;image-keyboard-response;;NA;french
312;28;condition1;S_T;S;M;;;;0.0-6.0-3.74;s;555;3;T;Press S if the two images were the same;NA;NA;NA;NA;;;NA;french
313;28;condition1;_;;;;;;0.0-6.0-0.75;;NA;0;;img2/french/7.jpg;NA;147495;NA;312;image-keyboard-response;;NA;french
314;28;condition1;_;;;;;;0.0-6.0-1.75;;NA;1;;+;NA;147813;NA;313;html-keyboard-response;;NA;french
315;28;condition1;_;;;;;;0.0-6.0-2.75;;NA;2;;img2/french/6.jpg;NA;148026;NA;314;image-keyboard-response;;NA;french
316;28;condition1;D_T;D;R;;;;0.0-6.0-3.75;d;428;3;T;Press S if the two images were the same;NA;NA;NA;NA;;;NA;french
317;28;condition1;_;;;;;;0.0-6.0-0.76;;NA;0;;img2/jap/12.jpg;NA;148692;NA;316;image-keyboard-response;;NA;french
318;28;condition1;_;;;;;;0.0-6.0-1.76;;NA;1;;+;NA;149001;NA;317;html-keyboard-response;;NA;french
319;28;condition1;_;;;;;;0.0-6.0-2.76;;NA;2;;img2/jap/12.jpg;NA;149213;NA;318;image-keyboard-response;;NA;french
320;28;condition1;S_T;S;J;;;;0.0-6.0-3.76;s;346;3;T;Press S if the two images were the same;NA;NA;NA;NA;;;NA;french
321;28;condition1;_;;;;;;0.0-6.0-0.77;;NA;0;;img2/french/1.jpg;NA;149797;NA;320;image-keyboard-response;;NA;french
322;28;condition1;_;;;;;;0.0-6.0-1.77;;NA;1;;+;NA;150106;NA;321;html-keyboard-response;;NA;french
323;28;condition1;_;;;;;;0.0-6.0-2.77;;NA;2;;img2/Mfrench/1.jpg;NA;150356;NA;322;image-keyboard-response;;NA;french
324;28;condition1;S_M;S;R;;;;0.0-6.0-3.77;s;410;3;M;Press S if the two images were the same;NA;NA;NA;NA;;;NA;french
325;28;condition1;_;;;;;;0.0-6.0-0.78;;NA;0;;img2/tools/12.jpg;NA;150984;NA;324;image-keyboard-response;;NA;french
326;28;condition1;_;;;;;;0.0-6.0-1.78;;NA;1;;+;NA;151298;NA;325;html-keyboard-response;;NA;french
327;28;condition1;_;;;;;;0.0-6.0-2.78;;NA;2;;img2/tools/3.jpg;NA;151507;NA;326;image-keyboard-response;;NA;french
328;28;condition1;D_T;D;O;;;;0.0-6.0-3.78;d;394;3;T;Press S if the two images were the same;NA;NA;NA;NA;;;NA;french
329;28;condition1;_;;;;;;0.0-6.0-0.79;;NA;0;;img2/false/13.jpg;NA;152105;NA;328;image-keyboard-response;;NA;french
330;28;condition1;_;;;;;;0.0-6.0-1.79;;NA;1;;+;NA;152422;NA;329;html-keyboard-response;;NA;french
331;28;condition1;_;;;;;;0.0-6.0-2.79;;NA;2;;img2/false/13.jpg;NA;152623;NA;330;image-keyboard-response;;NA;french
332;28;condition1;S_T;S;M;;;;0.0-6.0-3.79;s;470;3;T;Press S if the two images were the same;NA;NA;NA;NA;;;NA;french
333;28;condition1;_;;;;;;0.0-6.0-0.80;;NA;0;;img2/Mfalse/3.jpg;NA;153306;NA;332;image-keyboard-response;;NA;french
334;28;condition1;_;;;;;;0.0-6.0-1.80;;NA;1;;+;NA;153622;NA;333;html-keyboard-response;;NA;french
335;28;condition1;_;;;;;;0.0-6.0-2.80;;NA;2;;img2/Mfalse/2.jpg;NA;153865;NA;334;image-keyboard-response;;NA;french
336;28;condition1;D_M;D;M;;;;0.0-6.0-3.80;d;410;3;M;Press S if the two images were the same;NA;NA;NA;NA;;;NA;french
337;28;condition1;_;;;;;;0.0-6.0-0.81;;NA;0;;img2/jap/14.jpg;NA;154490;NA;336;image-keyboard-response;;NA;french
338;28;condition1;_;;;;;;0.0-6.0-1.81;;NA;1;;+;NA;154798;NA;337;html-keyboard-response;;NA;french
339;28;condition1;_;;;;;;0.0-6.0-2.81;;NA;2;;img2/jap/7.jpg;NA;155011;NA;338;image-keyboard-response;;NA;french
340;28;condition1;D_T;D;J;;;;0.0-6.0-3.81;s;286;3;T;Press S if the two images were the same;NA;NA;NA;NA;;;NA;french
341;28;condition1;_;;;;;;0.0-6.0-0.82;;NA;0;;img2/Mjap/8.jpg;NA;155507;NA;340;image-keyboard-response;;NA;french
342;28;condition1;_;;;;;;0.0-6.0-1.82;;NA;1;;+;NA;155820;NA;341;html-keyboard-response;;NA;french
343;28;condition1;_;;;;;;0.0-6.0-2.82;;NA;2;;img2/Mjap/12.jpg;NA;156074;NA;342;image-keyboard-response;;NA;french
344;28;condition1;D_M;D;J;;;;0.0-6.0-3.82;d;379;3;M;Press S if the two images were the same;NA;NA;NA;NA;;;NA;french
345;28;condition1;_;;;;;;0.0-6.0-0.83;;NA;0;;img2/Mfrench/9.jpg;NA;156704;NA;344;image-keyboard-response;;NA;french
346;28;condition1;_;;;;;;0.0-6.0-1.83;;NA;1;;+;NA;157012;NA;345;html-keyboard-response;;NA;french
347;28;condition1;_;;;;;;0.0-6.0-2.83;;NA;2;;img2/Mfrench/13.jpg;NA;157267;NA;346;image-keyboard-response;;NA;french
348;28;condition1;D_M;D;R;;;;0.0-6.0-3.83;d;486;3;M;Press S if the two images were the same;NA;NA;NA;NA;;;NA;french
349;28;condition1;_;;;;;;0.0-6.0-0.84;;NA;0;;img2/faces/4.jpg;NA;157967;NA;348;image-keyboard-response;;NA;french
350;28;condition1;_;;;;;;0.0-6.0-1.84;;NA;1;;+;NA;158276;NA;349;html-keyboard-response;;NA;french
351;28;condition1;_;;;;;;0.0-6.0-2.84;;NA;2;;img2/faces/8.jpg;NA;158492;NA;350;image-keyboard-response;;NA;french
352;28;condition1;D_T;D;H;;;;0.0-6.0-3.84;d;337;3;T;Press S if the two images were the same;NA;NA;NA;NA;;;NA;french
353;28;condition1;_;;;;;;0.0-6.0-0.85;;NA;0;;img2/french/8.jpg;NA;159042;NA;352;image-keyboard-response;;NA;french
354;28;condition1;_;;;;;;0.0-6.0-1.85;;NA;1;;+;NA;159357;NA;353;html-keyboard-response;;NA;french
355;28;condition1;_;;;;;;0.0-6.0-2.85;;NA;2;;img2/Mfrench/8.jpg;NA;159572;NA;354;image-keyboard-response;;NA;french
356;28;condition1;S_M;S;R;;;;0.0-6.0-3.85;s;381;3;M;Press S if the two images were the same;NA;NA;NA;NA;;;NA;french
357;28;condition1;_;;;;;;0.0-6.0-0.86;;NA;0;;img2/Mtools/10.jpg;NA;160163;NA;356;image-keyboard-response;;NA;french
358;28;condition1;_;;;;;;0.0-6.0-1.86;;NA;1;;+;NA;160467;NA;357;html-keyboard-response;;NA;french
359;28;condition1;_;;;;;;0.0-6.0-2.86;;NA;2;;img2/Mtools/5.jpg;NA;160680;NA;358;image-keyboard-response;;NA;french
360;28;condition1;D_M;D;O;;;;0.0-6.0-3.86;d;231;3;M;Press S if the two images were the same;NA;NA;NA;NA;;;NA;french
361;28;condition1;_;;;;;;0.0-6.0-0.87;;NA;0;;img2/tools/13.jpg;NA;161118;NA;360;image-keyboard-response;;NA;french
362;28;condition1;_;;;;;;0.0-6.0-1.87;;NA;1;;+;NA;161433;NA;361;html-keyboard-response;;NA;french
363;28;condition1;_;;;;;;0.0-6.0-2.87;;NA;2;;img2/tools/10.jpg;NA;161638;NA;362;image-keyboard-response;;NA;french
364;28;condition1;D_T;D;O;;;;0.0-6.0-3.87;d;517;3;T;Press S if the two images were the same;NA;NA;NA;NA;;;NA;french
365;28;condition1;_;;;;;;0.0-6.0-0.88;;NA;0;;img2/french/4.jpg;NA;162368;NA;364;image-keyboard-response;;NA;french
366;28;condition1;_;;;;;;0.0-6.0-1.88;;NA;1;;+;NA;162680;NA;365;html-keyboard-response;;NA;french
367;28;condition1;_;;;;;;0.0-6.0-2.88;;NA;2;;img2/Mfrench/4.jpg;NA;162926;NA;366;image-keyboard-response;;NA;french
368;28;condition1;S_M;S;R;;;;0.0-6.0-3.88;s;440;3;M;Press S if the two images were the same;NA;NA;NA;NA;;;NA;french
369;28;condition1;_;;;;;;0.0-6.0-0.89;;NA;0;;img2/Mjap/3.jpg;NA;163627;NA;368;image-keyboard-response;;NA;french
370;28;condition1;_;;;;;;0.0-6.0-1.89;;NA;1;;+;NA;163934;NA;369;html-keyboard-response;;NA;french
371;28;condition1;_;;;;;;0.0-6.0-2.89;;NA;2;;img2/Mjap/2.jpg;NA;164145;NA;370;image-keyboard-response;;NA;french
372;28;condition1;D_M;D;J;;;;0.0-6.0-3.89;d;438;3;M;Press S if the two images were the same;NA;NA;NA;NA;;;NA;french
373;28;condition1;_;;;;;;0.0-6.0-0.90;;NA;0;;img2/jap/6.jpg;NA;164785;NA;372;image-keyboard-response;;NA;french
374;28;condition1;_;;;;;;0.0-6.0-1.90;;NA;1;;+;NA;165094;NA;373;html-keyboard-response;;NA;french
375;28;condition1;_;;;;;;0.0-6.0-2.90;;NA;2;;img2/Mjap/6.jpg;NA;165298;NA;374;image-keyboard-response;;NA;french
376;28;condition1;S_M;S;J;;;;0.0-6.0-3.90;d;464;3;M;Press S if the two images were the same;NA;NA;NA;NA;;;NA;french
377;28;condition1;_;;;;;;0.0-6.0-0.91;;NA;0;;img2/Mjap/11.jpg;NA;166015;NA;376;image-keyboard-response;;NA;french
378;28;condition1;_;;;;;;0.0-6.0-1.91;;NA;1;;+;NA;166320;NA;377;html-keyboard-response;;NA;french
379;28;condition1;_;;;;;;0.0-6.0-2.91;;NA;2;;img2/Mjap/13.jpg;NA;166528;NA;378;image-keyboard-response;;NA;french
380;28;condition1;D_M;D;J;;;;0.0-6.0-3.91;d;429;3;M;Press S if the two images were the same;NA;NA;NA;NA;;;NA;french
381;28;condition1;_;;;;;;0.0-6.0-0.92;;NA;0;;img2/Mjap/6.jpg;NA;167167;NA;380;image-keyboard-response;;NA;french
382;28;condition1;_;;;;;;0.0-6.0-1.92;;NA;1;;+;NA;167478;NA;381;html-keyboard-response;;NA;french
383;28;condition1;_;;;;;;0.0-6.0-2.92;;NA;2;;img2/Mjap/12.jpg;NA;167691;NA;382;image-keyboard-response;;NA;french
384;28;condition1;D_M;D;J;;;;0.0-6.0-3.92;d;471;3;M;Press S if the two images were the same;NA;NA;NA;NA;;;NA;french
385;28;condition1;_;;;;;;0.0-6.0-0.93;;NA;0;;img2/Mtools/8.jpg;NA;168374;NA;384;image-keyboard-response;;NA;french
386;28;condition1;_;;;;;;0.0-6.0-1.93;;NA;1;;+;NA;168684;NA;385;html-keyboard-response;;NA;french
387;28;condition1;_;;;;;;0.0-6.0-2.93;;NA;2;;img2/Mtools/12.jpg;NA;168901;NA;386;image-keyboard-response;;NA;french
388;28;condition1;D_M;D;O;;;;0.0-6.0-3.93;d;465;3;M;Press S if the two images were the same;NA;NA;NA;NA;;;NA;french
389;28;condition1;_;;;;;;0.0-6.0-0.94;;NA;0;;img2/jap/4.jpg;NA;169604;NA;388;image-keyboard-response;;NA;french
390;28;condition1;_;;;;;;0.0-6.0-1.94;;NA;1;;+;NA;169919;NA;389;html-keyboard-response;;NA;french
391;28;condition1;_;;;;;;0.0-6.0-2.94;;NA;2;;img2/jap/8.jpg;NA;170150;NA;390;image-keyboard-response;;NA;french
392;28;condition1;D_T;D;J;;;;0.0-6.0-3.94;d;344;3;T;Press S if the two images were the same;NA;NA;NA;NA;;;NA;french
393;28;condition1;_;;;;;;0.0-6.0-0.95;;NA;0;;img2/french/4.jpg;NA;170705;NA;392;image-keyboard-response;;NA;french
394;28;condition1;_;;;;;;0.0-6.0-1.95;;NA;1;;+;NA;171017;NA;393;html-keyboard-response;;NA;french
395;28;condition1;_;;;;;;0.0-6.0-2.95;;NA;2;;img2/french/8.jpg;NA;171222;NA;394;image-keyboard-response;;NA;french
396;28;condition1;D_T;D;R;;;;0.0-6.0-3.95;d;395;3;T;Press S if the two images were the same;NA;NA;NA;NA;;;NA;french
397;28;condition1;_;;;;;;0.0-6.0-0.96;;NA;0;;img2/faces/6.jpg;NA;171823;NA;396;image-keyboard-response;;NA;french
398;28;condition1;_;;;;;;0.0-6.0-1.96;;NA;1;;+;NA;172133;NA;397;html-keyboard-response;;NA;french
399;28;condition1;_;;;;;;0.0-6.0-2.96;;NA;2;;img2/faces/12.jpg;NA;172363;NA;398;image-keyboard-response;;NA;french
400;28;condition1;D_T;D;H;;;;0.0-6.0-3.96;d;368;3;T;Press S if the two images were the same;NA;NA;NA;NA;;;NA;french
401;28;condition1;_;;;;;;0.0-6.0-0.97;;NA;0;;img2/Mfaces/9.jpg;NA;172963;NA;400;image-keyboard-response;;NA;french
402;28;condition1;_;;;;;;0.0-6.0-1.97;;NA;1;;+;NA;173274;NA;401;html-keyboard-response;;NA;french
403;28;condition1;_;;;;;;0.0-6.0-2.97;;NA;2;;img2/Mfaces/13.jpg;NA;173501;NA;402;image-keyboard-response;;NA;french
404;28;condition1;D_M;D;H;;;;0.0-6.0-3.97;d;424;3;M;Press S if the two images were the same;NA;NA;NA;NA;;;NA;french
405;28;condition1;_;;;;;;0.0-6.0-0.98;;NA;0;;img2/faces/11.jpg;NA;174156;NA;404;image-keyboard-response;;NA;french
406;28;condition1;_;;;;;;0.0-6.0-1.98;;NA;1;;+;NA;174460;NA;405;html-keyboard-response;;NA;french
407;28;condition1;_;;;;;;0.0-6.0-2.98;;NA;2;;img2/faces/11.jpg;NA;174665;NA;406;image-keyboard-response;;NA;french
408;28;condition1;S_T;S;H;;;;0.0-6.0-3.98;s;274;3;T;Press S if the two images were the same;NA;NA;NA;NA;;;NA;french
409;28;condition1;_;;;;;;0.0-6.0-0.99;;NA;0;;img2/false/11.jpg;NA;175182;NA;408;image-keyboard-response;;NA;french
410;28;condition1;_;;;;;;0.0-6.0-1.99;;NA;1;;+;NA;175486;NA;409;html-keyboard-response;;NA;french
411;28;condition1;_;;;;;;0.0-6.0-2.99;;NA;2;;img2/false/13.jpg;NA;175689;NA;410;image-keyboard-response;;NA;french
412;28;condition1;D_T;D;M;;;;0.0-6.0-3.99;d;370;3;T;Press S if the two images were the same;NA;NA;NA;NA;;;NA;french
413;28;condition1;_;;;;;;0.0-6.0-0.100;;NA;0;;img2/false/4.jpg;NA;176271;NA;412;image-keyboard-response;;NA;french
414;28;condition1;_;;;;;;0.0-6.0-1.100;;NA;1;;+;NA;176586;NA;413;html-keyboard-response;;NA;french
415;28;condition1;_;;;;;;0.0-6.0-2.100;;NA;2;;img2/Mfalse/4.jpg;NA;176833;NA;414;image-keyboard-response;;NA;french
416;28;condition1;S_M;S;M;;;;0.0-6.0-3.100;d;565;3;M;Press S if the two images were the same;NA;NA;NA;NA;;;NA;french
417;28;condition1;_;;;;;;0.0-6.0-0.101;;NA;0;;img2/Mjap/12.jpg;NA;177610;NA;416;image-keyboard-response;;NA;french
418;28;condition1;_;;;;;;0.0-6.0-1.101;;NA;1;;+;NA;177924;NA;417;html-keyboard-response;;NA;french
419;28;condition1;_;;;;;;0.0-6.0-2.101;;NA;2;;img2/Mjap/3.jpg;NA;178128;NA;418;image-keyboard-response;;NA;french
420;28;condition1;D_M;D;J;;;;0.0-6.0-3.101;d;475;3;M;Press S if the two images were the same;NA;NA;NA;NA;;;NA;french
421;28;condition1;_;;;;;;0.0-6.0-0.102;;NA;0;;img2/jap/2.jpg;NA;178854;NA;420;image-keyboard-response;;NA;french
422;28;condition1;_;;;;;;0.0-6.0-1.102;;NA;1;;+;NA;179166;NA;421;html-keyboard-response;;NA;french
423;28;condition1;_;;;;;;0.0-6.0-2.102;;NA;2;;img2/jap/2.jpg;NA;179374;NA;422;image-keyboard-response;;NA;french
424;28;condition1;S_T;S;J;;;;0.0-6.0-3.102;s;299;3;T;Press S if the two images were the same;NA;NA;NA;NA;;;NA;french
425;28;condition1;_;;;;;;0.0-6.0-0.103;;NA;0;;img2/jap/10.jpg;NA;179926;NA;424;image-keyboard-response;;NA;french
426;28;condition1;_;;;;;;0.0-6.0-1.103;;NA;1;;+;NA;180234;NA;425;html-keyboard-response;;NA;french
427;28;condition1;_;;;;;;0.0-6.0-2.103;;NA;2;;img2/jap/5.jpg;NA;180484;NA;426;image-keyboard-response;;NA;french
428;28;condition1;D_T;D;J;;;;0.0-6.0-3.103;d;362;3;T;Press S if the two images were the same;NA;NA;NA;NA;;;NA;french
429;28;condition1;_;;;;;;0.0-6.0-0.104;;NA;0;;img2/false/8.jpg;NA;181087;NA;428;image-keyboard-response;;NA;french
430;28;condition1;_;;;;;;0.0-6.0-1.104;;NA;1;;+;NA;181394;NA;429;html-keyboard-response;;NA;french
431;28;condition1;_;;;;;;0.0-6.0-2.104;;NA;2;;img2/Mfalse/8.jpg;NA;181641;NA;430;image-keyboard-response;;NA;french
432;28;condition1;S_M;S;M;;;;0.0-6.0-3.104;d;340;3;M;Press S if the two images were the same;NA;NA;NA;NA;;;NA;french
433;28;condition1;_;;;;;;0.0-6.0-0.105;;NA;0;;img2/jap/8.jpg;NA;182194;NA;432;image-keyboard-response;;NA;french
434;28;condition1;_;;;;;;0.0-6.0-1.105;;NA;1;;+;NA;182501;NA;433;html-keyboard-response;;NA;french
435;28;condition1;_;;;;;;0.0-6.0-2.105;;NA;2;;img2/jap/12.jpg;NA;182713;NA;434;image-keyboard-response;;NA;french
436;28;condition1;D_T;D;J;;;;0.0-6.0-3.105;d;487;3;T;Press S if the two images were the same;NA;NA;NA;NA;;;NA;french
437;28;condition1;_;;;;;;0.0-6.0-0.106;;NA;0;;img2/jap/12.jpg;NA;183410;NA;436;image-keyboard-response;;NA;french
438;28;condition1;_;;;;;;0.0-6.0-1.106;;NA;1;;+;NA;183719;NA;437;html-keyboard-response;;NA;french
439;28;condition1;_;;;;;;0.0-6.0-2.106;;NA;2;;img2/jap/3.jpg;NA;183959;NA;438;image-keyboard-response;;NA;french
440;28;condition1;D_T;D;J;;;;0.0-6.0-3.106;d;407;3;T;Press S if the two images were the same;NA;NA;NA;NA;;;NA;french
441;28;condition1;_;;;;;;0.0-6.0-0.107;;NA;0;;img2/faces/14.jpg;NA;184573;NA;440;image-keyboard-response;;NA;french
442;28;condition1;_;;;;;;0.0-6.0-1.107;;NA;1;;+;NA;184876;NA;441;html-keyboard-response;;NA;french
443;28;condition1;_;;;;;;0.0-6.0-2.107;;NA;2;;img2/faces/14.jpg;NA;185088;NA;442;image-keyboard-response;;NA;french
444;28;condition1;S_T;S;H;;;;0.0-6.0-3.107;s;318;3;T;Press S if the two images were the same;NA;NA;NA;NA;;;NA;french
445;28;condition1;_;;;;;;0.0-6.0-0.108;;NA;0;;img2/faces/6.jpg;NA;185613;NA;444;image-keyboard-response;;NA;french
446;28;condition1;_;;;;;;0.0-6.0-1.108;;NA;1;;+;NA;185926;NA;445;html-keyboard-response;;NA;french
447;28;condition1;_;;;;;;0.0-6.0-2.108;;NA;2;;img2/faces/6.jpg;NA;186136;NA;446;image-keyboard-response;;NA;french
448;28;condition1;S_T;S;H;;;;0.0-6.0-3.108;s;305;3;T;Press S if the two images were the same;NA;NA;NA;NA;;;NA;french
449;28;condition1;_;;;;;;0.0-6.0-0.109;;NA;0;;img2/french/13.jpg;NA;186673;NA;448;image-keyboard-response;;NA;french
450;28;condition1;_;;;;;;0.0-6.0-1.109;;NA;1;;+;NA;186986;NA;449;html-keyboard-response;;NA;french
451;28;condition1;_;;;;;;0.0-6.0-2.109;;NA;2;;img2/french/10.jpg;NA;187232;NA;450;image-keyboard-response;;NA;french
452;28;condition1;D_T;D;R;;;;0.0-6.0-3.109;d;374;3;T;Press S if the two images were the same;NA;NA;NA;NA;;;NA;french
453;28;condition1;_;;;;;;0.0-6.0-0.110;;NA;0;;img2/jap/11.jpg;NA;187857;NA;452;image-keyboard-response;;NA;french
454;28;condition1;_;;;;;;0.0-6.0-1.110;;NA;1;;+;NA;188169;NA;453;html-keyboard-response;;NA;french
455;28;condition1;_;;;;;;0.0-6.0-2.110;;NA;2;;img2/Mjap/11.jpg;NA;188382;NA;454;image-keyboard-response;;NA;french
456;28;condition1;S_M;S;J;;;;0.0-6.0-3.110;s;326;3;M;Press S if the two images were the same;NA;NA;NA;NA;;;NA;french
457;28;condition1;_;;;;;;0.0-6.0-0.111;;NA;0;;img2/Mjap/7.jpg;NA;188926;NA;456;image-keyboard-response;;NA;french
458;28;condition1;_;;;;;;0.0-6.0-1.111;;NA;1;;+;NA;189242;NA;457;html-keyboard-response;;NA;french
459;28;condition1;_;;;;;;0.0-6.0-2.111;;NA;2;;img2/Mjap/6.jpg;NA;189456;NA;458;image-keyboard-response;;NA;french
460;28;condition1;D_M;D;J;;;;0.0-6.0-3.111;d;425;3;M;Press S if the two images were the same;NA;NA;NA;NA;;;NA;french
461;28;condition1;_;;;;;;0.0-6.0-0.112;;NA;0;;img2/Mfaces/5.jpg;NA;190119;NA;460;image-keyboard-response;;NA;french
462;28;condition1;_;;;;;;0.0-6.0-1.112;;NA;1;;+;NA;190434;NA;461;html-keyboard-response;;NA;french
463;28;condition1;_;;;;;;0.0-6.0-2.112;;NA;2;;img2/Mfaces/6.jpg;NA;190637;NA;462;image-keyboard-response;;NA;french
464;28;condition1;D_M;D;H;;;;0.0-6.0-3.112;d;534;3;M;Press S if the two images were the same;NA;NA;NA;NA;;;NA;french
465;28;condition1;_;;;;;;0.0-6.0-0.113;;NA;0;;img2/false/9.jpg;NA;191411;NA;464;image-keyboard-response;;NA;french
466;28;condition1;_;;;;;;0.0-6.0-1.113;;NA;1;;+;NA;191713;NA;465;html-keyboard-response;;NA;french
467;28;condition1;_;;;;;;0.0-6.0-2.113;;NA;2;;img2/false/9.jpg;NA;191919;NA;466;image-keyboard-response;;NA;french
468;28;condition1;S_T;S;M;;;;0.0-6.0-3.113;s;387;3;T;Press S if the two images were the same;NA;NA;NA;NA;;;NA;french
469;28;condition1;_;;;;;;0.0-6.0-0.114;;NA;0;;img2/faces/1.jpg;NA;192514;NA;468;image-keyboard-response;;NA;french
470;28;condition1;_;;;;;;0.0-6.0-1.114;;NA;1;;+;NA;192828;NA;469;html-keyboard-response;;NA;french
471;28;condition1;_;;;;;;0.0-6.0-2.114;;NA;2;;img2/faces/1.jpg;NA;193031;NA;470;image-keyboard-response;;NA;french
472;28;condition1;S_T;S;H;;;;0.0-6.0-3.114;s;320;3;T;Press S if the two images were the same;NA;NA;NA;NA;;;NA;french
473;28;condition1;_;;;;;;0.0-6.0-0.115;;NA;0;;img2/french/9.jpg;NA;193587;NA;472;image-keyboard-response;;NA;french
474;28;condition1;_;;;;;;0.0-6.0-1.115;;NA;1;;+;NA;193889;NA;473;html-keyboard-response;;NA;french
475;28;condition1;_;;;;;;0.0-6.0-2.115;;NA;2;;img2/french/13.jpg;NA;194095;NA;474;image-keyboard-response;;NA;french
476;28;condition1;D_T;D;R;;;;0.0-6.0-3.115;d;346;3;T;Press S if the two images were the same;NA;NA;NA;NA;;;NA;french
477;28;condition1;_;;;;;;0.0-6.0-0.116;;NA;0;;img2/tools/12.jpg;NA;194653;NA;476;image-keyboard-response;;NA;french
478;28;condition1;_;;;;;;0.0-6.0-1.116;;NA;1;;+;NA;194972;NA;477;html-keyboard-response;;NA;french
479;28;condition1;_;;;;;;0.0-6.0-2.116;;NA;2;;img2/tools/12.jpg;NA;195176;NA;478;image-keyboard-response;;NA;french
480;28;condition1;S_T;S;O;;;;0.0-6.0-3.116;s;264;3;T;Press S if the two images were the same;NA;NA;NA;NA;;;NA;french
481;28;condition1;_;;;;;;0.0-6.0-0.117;;NA;0;;img2/jap/9.jpg;NA;195697;NA;480;image-keyboard-response;;NA;french
482;28;condition1;_;;;;;;0.0-6.0-1.117;;NA;1;;+;NA;196010;NA;481;html-keyboard-response;;NA;french
483;28;condition1;_;;;;;;0.0-6.0-2.117;;NA;2;;img2/Mjap/9.jpg;NA;196214;NA;482;image-keyboard-response;;NA;french
484;28;condition1;S_M;S;J;;;;0.0-6.0-3.117;d;454;3;M;Press S if the two images were the same;NA;NA;NA;NA;;;NA;french
485;28;condition1;_;;;;;;0.0-6.0-0.118;;NA;0;;img2/Mtools/5.jpg;NA;196878;NA;484;image-keyboard-response;;NA;french
486;28;condition1;_;;;;;;0.0-6.0-1.118;;NA;1;;+;NA;197199;NA;485;html-keyboard-response;;NA;french
487;28;condition1;_;;;;;;0.0-6.0-2.118;;NA;2;;img2/Mtools/6.jpg;NA;197411;NA;486;image-keyboard-response;;NA;french
488;28;condition1;D_M;D;O;;;;0.0-6.0-3.118;d;497;3;M;Press S if the two images were the same;NA;NA;NA;NA;;;NA;french
489;28;condition1;_;;;;;;0.0-6.0-0.119;;NA;0;;img2/french/14.jpg;NA;198146;NA;488;image-keyboard-response;;NA;french
490;28;condition1;_;;;;;;0.0-6.0-1.119;;NA;1;;+;NA;198447;NA;489;html-keyboard-response;;NA;french
491;28;condition1;_;;;;;;0.0-6.0-2.119;;NA;2;;img2/french/7.jpg;NA;198656;NA;490;image-keyboard-response;;NA;french
492;28;condition1;D_T;D;R;;;;0.0-6.0-3.119;d;440;3;T;Press S if the two images were the same;NA;NA;NA;NA;;;NA;french
493;28;condition1;_;;;;;;0.0-6.0-0.120;;NA;0;;img2/tools/14.jpg;NA;199312;NA;492;image-keyboard-response;;NA;french
494;28;condition1;_;;;;;;0.0-6.0-1.120;;NA;1;;+;NA;199617;NA;493;html-keyboard-response;;NA;french
495;28;condition1;_;;;;;;0.0-6.0-2.120;;NA;2;;img2/tools/14.jpg;NA;199831;NA;494;image-keyboard-response;;NA;french
496;28;condition1;S_T;S;O;;;;0.0-6.0-3.120;s;263;3;T;Press S if the two images were the same;NA;NA;NA;NA;;;NA;french
497;28;condition1;_;;;;;;0.0-6.0-0.121;;NA;0;;img2/Mtools/7.jpg;NA;200306;NA;496;image-keyboard-response;;NA;french
498;28;condition1;_;;;;;;0.0-6.0-1.121;;NA;1;;+;NA;200620;NA;497;html-keyboard-response;;NA;french
499;28;condition1;_;;;;;;0.0-6.0-2.121;;NA;2;;img2/Mtools/6.jpg;NA;200833;NA;498;image-keyboard-response;;NA;french
500;28;condition1;D_M;D;O;;;;0.0-6.0-3.121;d;368;3;M;Press S if the two images were the same;NA;NA;NA;NA;;;NA;french
501;28;condition1;_;;;;;;0.0-6.0-0.122;;NA;0;;img2/false/8.jpg;NA;201404;NA;500;image-keyboard-response;;NA;french
502;28;condition1;_;;;;;;0.0-6.0-1.122;;NA;1;;+;NA;201705;NA;501;html-keyboard-response;;NA;french
503;28;condition1;_;;;;;;0.0-6.0-2.122;;NA;2;;img2/false/8.jpg;NA;201908;NA;502;image-keyboard-response;;NA;french
504;28;condition1;S_T;S;M;;;;0.0-6.0-3.122;s;633;3;T;Press S if the two images were the same;NA;NA;NA;NA;;;NA;french
505;28;condition1;_;;;;;;0.0-6.0-0.123;;NA;0;;img2/jap/14.jpg;NA;202748;NA;504;image-keyboard-response;;NA;french
506;28;condition1;_;;;;;;0.0-6.0-1.123;;NA;1;;+;NA;203050;NA;505;html-keyboard-response;;NA;french
507;28;condition1;_;;;;;;0.0-6.0-2.123;;NA;2;;img2/Mjap/14.jpg;NA;203289;NA;506;image-keyboard-response;;NA;french
508;28;condition1;S_M;S;J;;;;0.0-6.0-3.123;d;527;3;M;Press S if the two images were the same;NA;NA;NA;NA;;;NA;french
509;28;condition1;_;;;;;;0.0-6.0-0.124;;NA;0;;img2/false/1.jpg;NA;204029;NA;508;image-keyboard-response;;NA;french
510;28;condition1;_;;;;;;0.0-6.0-1.124;;NA;1;;+;NA;204334;NA;509;html-keyboard-response;;NA;french
511;28;condition1;_;;;;;;0.0-6.0-2.124;;NA;2;;img2/Mfalse/1.jpg;NA;204580;NA;510;image-keyboard-response;;NA;french
512;28;condition1;S_M;S;M;;;;0.0-6.0-3.124;d;590;3;M;Press S if the two images were the same;NA;NA;NA;NA;;;NA;french
513;28;condition1;_;;;;;;0.0-6.0-0.125;;NA;0;;img2/Mfaces/12.jpg;NA;205374;NA;512;image-keyboard-response;;NA;french
514;28;condition1;_;;;;;;0.0-6.0-1.125;;NA;1;;+;NA;205686;NA;513;html-keyboard-response;;NA;french
515;28;condition1;_;;;;;;0.0-6.0-2.125;;NA;2;;img2/Mfaces/3.jpg;NA;205902;NA;514;image-keyboard-response;;NA;french
516;28;condition1;D_M;D;H;;;;0.0-6.0-3.125;d;676;3;M;Press S if the two images were the same;NA;NA;NA;NA;;;NA;french
517;28;condition1;_;;;;;;0.0-6.0-0.126;;NA;0;;img2/jap/8.jpg;NA;206786;NA;516;image-keyboard-response;;NA;french
518;28;condition1;_;;;;;;0.0-6.0-1.126;;NA;1;;+;NA;207097;NA;517;html-keyboard-response;;NA;french
519;28;condition1;_;;;;;;0.0-6.0-2.126;;NA;2;;img2/Mjap/8.jpg;NA;207300;NA;518;image-keyboard-response;;NA;french
520;28;condition1;S_M;S;J;;;;0.0-6.0-3.126;d;516;3;M;Press S if the two images were the same;NA;NA;NA;NA;;;NA;french
521;28;condition1;_;;;;;;0.0-6.0-0.127;;NA;0;;img2/tools/3.jpg;NA;208029;NA;520;image-keyboard-response;;NA;french
522;28;condition1;_;;;;;;0.0-6.0-1.127;;NA;1;;+;NA;208344;NA;521;html-keyboard-response;;NA;french
523;28;condition1;_;;;;;;0.0-6.0-2.127;;NA;2;;img2/tools/3.jpg;NA;208550;NA;522;image-keyboard-response;;NA;french
524;28;condition1;S_T;S;O;;;;0.0-6.0-3.127;s;284;3;T;Press S if the two images were the same;NA;NA;NA;NA;;;NA;french
525;28;condition1;_;;;;;;0.0-6.0-0.128;;NA;0;;img2/false/4.jpg;NA;209052;NA;524;image-keyboard-response;;NA;french
526;28;condition1;_;;;;;;0.0-6.0-1.128;;NA;1;;+;NA;209367;NA;525;html-keyboard-response;;NA;french
527;28;condition1;_;;;;;;0.0-6.0-2.128;;NA;2;;img2/false/8.jpg;NA;209583;NA;526;image-keyboard-response;;NA;french
528;28;condition1;D_T;D;M;;;;0.0-6.0-3.128;d;482;3;T;Press S if the two images were the same;NA;NA;NA;NA;;;NA;french
529;28;condition1;_;;;;;;0.0-6.0-0.129;;NA;0;;img2/french/14.jpg;NA;210282;NA;528;image-keyboard-response;;NA;french
530;28;condition1;_;;;;;;0.0-6.0-1.129;;NA;1;;+;NA;210587;NA;529;html-keyboard-response;;NA;french
531;28;condition1;_;;;;;;0.0-6.0-2.129;;NA;2;;img2/Mfrench/14.jpg;NA;210832;NA;530;image-keyboard-response;;NA;french
532;28;condition1;S_M;S;R;;;;0.0-6.0-3.129;d;531;3;M;Press S if the two images were the same;NA;NA;NA;NA;;;NA;french
533;28;condition1;_;;;;;;0.0-6.0-0.130;;NA;0;;img2/false/3.jpg;NA;211570;NA;532;image-keyboard-response;;NA;french
534;28;condition1;_;;;;;;0.0-6.0-1.130;;NA;1;;+;NA;211879;NA;533;html-keyboard-response;;NA;french
535;28;condition1;_;;;;;;0.0-6.0-2.130;;NA;2;;img2/false/2.jpg;NA;212128;NA;534;image-keyboard-response;;NA;french
536;28;condition1;D_T;D;M;;;;0.0-6.0-3.130;d;494;3;T;Press S if the two images were the same;NA;NA;NA;NA;;;NA;french
537;28;condition1;_;;;;;;0.0-6.0-0.131;;NA;0;;img2/Mfaces/1.jpg;NA;212845;NA;536;image-keyboard-response;;NA;french
538;28;condition1;_;;;;;;0.0-6.0-1.131;;NA;1;;+;NA;213160;NA;537;html-keyboard-response;;NA;french
539;28;condition1;_;;;;;;0.0-6.0-2.131;;NA;2;;img2/Mfaces/10.jpg;NA;213399;NA;538;image-keyboard-response;;NA;french
540;28;condition1;D_M;D;H;;;;0.0-6.0-3.131;d;358;3;M;Press S if the two images were the same;NA;NA;NA;NA;;;NA;french
541;28;condition1;_;;;;;;0.0-6.0-0.132;;NA;0;;img2/faces/13.jpg;NA;213988;NA;540;image-keyboard-response;;NA;french
542;28;condition1;_;;;;;;0.0-6.0-1.132;;NA;1;;+;NA;214292;NA;541;html-keyboard-response;;NA;french
543;28;condition1;_;;;;;;0.0-6.0-2.132;;NA;2;;img2/faces/10.jpg;NA;214506;NA;542;image-keyboard-response;;NA;french
544;28;condition1;D_T;D;H;;;;0.0-6.0-3.132;d;385;3;T;Press S if the two images were the same;NA;NA;NA;NA;;;NA;french
545;28;condition1;_;;;;;;0.0-6.0-0.133;;NA;0;;img2/faces/8.jpg;NA;215106;NA;544;image-keyboard-response;;NA;french
546;28;condition1;_;;;;;;0.0-6.0-1.133;;NA;1;;+;NA;215408;NA;545;html-keyboard-response;;NA;french
547;28;condition1;_;;;;;;0.0-6.0-2.133;;NA;2;;img2/faces/12.jpg;NA;215622;NA;546;image-keyboard-response;;NA;french
548;28;condition1;D_T;D;H;;;;0.0-6.0-3.133;d;374;3;T;Press S if the two images were the same;NA;NA;NA;NA;;;NA;french
549;28;condition1;_;;;;;;0.0-6.0-0.134;;NA;0;;img2/french/2.jpg;NA;216244;NA;548;image-keyboard-response;;NA;french
550;28;condition1;_;;;;;;0.0-6.0-1.134;;NA;1;;+;NA;216556;NA;549;html-keyboard-response;;NA;french
551;28;condition1;_;;;;;;0.0-6.0-2.134;;NA;2;;img2/french/2.jpg;NA;216765;NA;550;image-keyboard-response;;NA;french
552;28;condition1;S_T;S;R;;;;0.0-6.0-3.134;s;362;3;T;Press S if the two images were the same;NA;NA;NA;NA;;;NA;french
553;28;condition1;_;;;;;;0.0-6.0-0.135;;NA;0;;img2/false/10.jpg;NA;217342;NA;552;image-keyboard-response;;NA;french
554;28;condition1;_;;;;;;0.0-6.0-1.135;;NA;1;;+;NA;217655;NA;553;html-keyboard-response;;NA;french
555;28;condition1;_;;;;;;0.0-6.0-2.135;;NA;2;;img2/Mfalse/10.jpg;NA;217913;NA;554;image-keyboard-response;;NA;french
556;28;condition1;S_M;S;M;;;;0.0-6.0-3.135;d;365;3;M;Press S if the two images were the same;NA;NA;NA;NA;;;NA;french
557;28;condition1;_;;;;;;0.0-6.0-0.136;;NA;0;;img2/tools/9.jpg;NA;218494;NA;556;image-keyboard-response;;NA;french
558;28;condition1;_;;;;;;0.0-6.0-1.136;;NA;1;;+;NA;218809;NA;557;html-keyboard-response;;NA;french
559;28;condition1;_;;;;;;0.0-6.0-2.136;;NA;2;;img2/tools/9.jpg;NA;219018;NA;558;image-keyboard-response;;NA;french
560;28;condition1;S_T;S;O;;;;0.0-6.0-3.136;d;536;3;T;Press S if the two images were the same;NA;NA;NA;NA;;;NA;french
561;28;condition1;_;;;;;;0.0-6.0-0.137;;NA;0;;img2/Mfalse/1.jpg;NA;219766;NA;560;image-keyboard-response;;NA;french
562;28;condition1;_;;;;;;0.0-6.0-1.137;;NA;1;;+;NA;220075;NA;561;html-keyboard-response;;NA;french
563;28;condition1;_;;;;;;0.0-6.0-2.137;;NA;2;;img2/Mfalse/10.jpg;NA;220287;NA;562;image-keyboard-response;;NA;french
564;28;condition1;D_M;D;M;;;;0.0-6.0-3.137;s;1038;3;M;Press S if the two images were the same;NA;NA;NA;NA;;;NA;french
565;28;condition1;_;;;;;;0.0-6.0-0.138;;NA;0;;img2/jap/7.jpg;NA;221536;NA;564;image-keyboard-response;;NA;french
566;28;condition1;_;;;;;;0.0-6.0-1.138;;NA;1;;+;NA;221848;NA;565;html-keyboard-response;;NA;french
567;28;condition1;_;;;;;;0.0-6.0-2.138;;NA;2;;img2/jap/7.jpg;NA;222057;NA;566;image-keyboard-response;;NA;french
568;28;condition1;S_T;S;J;;;;0.0-6.0-3.138;s;363;3;T;Press S if the two images were the same;NA;NA;NA;NA;;;NA;french
569;28;condition1;_;;;;;;0.0-6.0-0.139;;NA;0;;img2/false/12.jpg;NA;222630;NA;568;image-keyboard-response;;NA;french
570;28;condition1;_;;;;;;0.0-6.0-1.139;;NA;1;;+;NA;222932;NA;569;html-keyboard-response;;NA;french
571;28;condition1;_;;;;;;0.0-6.0-2.139;;NA;2;;img2/Mfalse/12.jpg;NA;223142;NA;570;image-keyboard-response;;NA;french
572;28;condition1;S_M;S;M;;;;0.0-6.0-3.139;d;419;3;M;Press S if the two images were the same;NA;NA;NA;NA;;;NA;french
573;28;condition1;_;;;;;;0.0-6.0-0.140;;NA;0;;img2/tools/3.jpg;NA;223771;NA;572;image-keyboard-response;;NA;french
574;28;condition1;_;;;;;;0.0-6.0-1.140;;NA;1;;+;NA;224088;NA;573;html-keyboard-response;;NA;french
575;28;condition1;_;;;;;;0.0-6.0-2.140;;NA;2;;img2/tools/2.jpg;NA;224310;NA;574;image-keyboard-response;;NA;french
576;28;condition1;D_T;D;O;;;;0.0-6.0-3.140;d;434;3;T;Press S if the two images were the same;NA;NA;NA;NA;;;NA;french
577;28;condition1;_;;;;;;0.0-6.0-0.141;;NA;0;;img2/false/13.jpg;NA;224959;NA;576;image-keyboard-response;;NA;french
578;28;condition1;_;;;;;;0.0-6.0-1.141;;NA;1;;+;NA;225274;NA;577;html-keyboard-response;;NA;french
579;28;condition1;_;;;;;;0.0-6.0-2.141;;NA;2;;img2/false/10.jpg;NA;225485;NA;578;image-keyboard-response;;NA;french
580;28;condition1;D_T;D;M;;;;0.0-6.0-3.141;d;487;3;T;Press S if the two images were the same;NA;NA;NA;NA;;;NA;french
581;28;condition1;_;;;;;;0.0-6.0-0.142;;NA;0;;img2/Mfrench/1.jpg;NA;226193;NA;580;image-keyboard-response;;NA;french
582;28;condition1;_;;;;;;0.0-6.0-1.142;;NA;1;;+;NA;226511;NA;581;html-keyboard-response;;NA;french
583;28;condition1;_;;;;;;0.0-6.0-2.142;;NA;2;;img2/Mfrench/10.jpg;NA;226767;NA;582;image-keyboard-response;;NA;french
584;28;condition1;D_M;D;R;;;;0.0-6.0-3.142;d;1351;3;M;Press S if the two images were the same;NA;NA;NA;NA;;;NA;french
585;28;condition1;_;;;;;;0.0-6.0-0.143;;NA;0;;img2/faces/9.jpg;NA;228346;NA;584;image-keyboard-response;;NA;french
586;28;condition1;_;;;;;;0.0-6.0-1.143;;NA;1;;+;NA;228661;NA;585;html-keyboard-response;;NA;french
587;28;condition1;_;;;;;;0.0-6.0-2.143;;NA;2;;img2/faces/13.jpg;NA;228870;NA;586;image-keyboard-response;;NA;french
588;28;condition1;D_T;D;H;;;;0.0-6.0-3.143;d;497;3;T;Press S if the two images were the same;NA;NA;NA;NA;;;NA;french
589;28;condition1;_;;;;;;0.0-6.0-0.144;;NA;0;;img2/false/12.jpg;NA;229574;NA;588;image-keyboard-response;;NA;french
590;28;condition1;_;;;;;;0.0-6.0-1.144;;NA;1;;+;NA;229890;NA;589;html-keyboard-response;;NA;french
591;28;condition1;_;;;;;;0.0-6.0-2.144;;NA;2;;img2/false/12.jpg;NA;230096;NA;590;image-keyboard-response;;NA;french
592;28;condition1;S_T;S;M;;;;0.0-6.0-3.144;s;337;3;T;Press S if the two images were the same;NA;NA;NA;NA;;;NA;french
593;28;condition1;_;;;;;;0.0-6.0-0.145;;NA;0;;img2/false/3.jpg;NA;230640;NA;592;image-keyboard-response;;NA;french
594;28;condition1;_;;;;;;0.0-6.0-1.145;;NA;1;;+;NA;230949;NA;593;html-keyboard-response;;NA;french
595;28;condition1;_;;;;;;0.0-6.0-2.145;;NA;2;;img2/false/3.jpg;NA;231157;NA;594;image-keyboard-response;;NA;french
596;28;condition1;S_T;S;M;;;;0.0-6.0-3.145;s;430;3;T;Press S if the two images were the same;NA;NA;NA;NA;;;NA;french
597;28;condition1;_;;;;;;0.0-6.0-0.146;;NA;0;;img2/false/7.jpg;NA;231829;NA;596;image-keyboard-response;;NA;french
598;28;condition1;_;;;;;;0.0-6.0-1.146;;NA;1;;+;NA;232144;NA;597;html-keyboard-response;;NA;french
599;28;condition1;_;;;;;;0.0-6.0-2.146;;NA;2;;img2/Mfalse/7.jpg;NA;232379;NA;598;image-keyboard-response;;NA;french
600;28;condition1;S_M;S;M;;;;0.0-6.0-3.146;d;369;3;M;Press S if the two images were the same;NA;NA;NA;NA;;;NA;french
601;28;condition1;_;;;;;;0.0-6.0-0.147;;NA;0;;img2/french/10.jpg;NA;232963;NA;600;image-keyboard-response;;NA;french
602;28;condition1;_;;;;;;0.0-6.0-1.147;;NA;1;;+;NA;233276;NA;601;html-keyboard-response;;NA;french
603;28;condition1;_;;;;;;0.0-6.0-2.147;;NA;2;;img2/french/5.jpg;NA;233511;NA;602;image-keyboard-response;;NA;french
604;28;condition1;D_T;D;R;;;;0.0-6.0-3.147;d;410;3;T;Press S if the two images were the same;NA;NA;NA;NA;;;NA;french
605;28;condition1;_;;;;;;0.0-6.0-0.148;;NA;0;;img2/false/2.jpg;NA;234128;NA;604;image-keyboard-response;;NA;french
606;28;condition1;_;;;;;;0.0-6.0-1.148;;NA;1;;+;NA;234431;NA;605;html-keyboard-response;;NA;french
607;28;condition1;_;;;;;;0.0-6.0-2.148;;NA;2;;img2/false/2.jpg;NA;234642;NA;606;image-keyboard-response;;NA;french
608;28;condition1;S_T;S;M;;;;0.0-6.0-3.148;s;391;3;T;Press S if the two images were the same;NA;NA;NA;NA;;;NA;french
609;28;condition1;_;;;;;;0.0-6.0-0.149;;NA;0;;img2/Mfaces/7.jpg;NA;235261;NA;608;image-keyboard-response;;NA;french
610;28;condition1;_;;;;;;0.0-6.0-1.149;;NA;1;;+;NA;235564;NA;609;html-keyboard-response;;NA;french
611;28;condition1;_;;;;;;0.0-6.0-2.149;;NA;2;;img2/Mfaces/6.jpg;NA;235776;NA;610;image-keyboard-response;;NA;french
612;28;condition1;D_M;D;H;;;;0.0-6.0-3.149;d;448;3;M;Press S if the two images were the same;NA;NA;NA;NA;;;NA;french
613;28;condition1;_;;;;;;0.0-6.0-0.150;;NA;0;;img2/tools/5.jpg;NA;236431;NA;612;image-keyboard-response;;NA;french
614;28;condition1;_;;;;;;0.0-6.0-1.150;;NA;1;;+;NA;236738;NA;613;html-keyboard-response;;NA;french
615;28;condition1;_;;;;;;0.0-6.0-2.150;;NA;2;;img2/tools/5.jpg;NA;236941;NA;614;image-keyboard-response;;NA;french
616;28;condition1;S_T;S;O;;;;0.0-6.0-3.150;s;311;3;T;Press S if the two images were the same;NA;NA;NA;NA;;;NA;french
617;28;condition1;_;;;;;;0.0-6.0-0.151;;NA;0;;img2/tools/7.jpg;NA;237460;NA;616;image-keyboard-response;;NA;french
618;28;condition1;_;;;;;;0.0-6.0-1.151;;NA;1;;+;NA;237765;NA;617;html-keyboard-response;;NA;french
619;28;condition1;_;;;;;;0.0-6.0-2.151;;NA;2;;img2/tools/7.jpg;NA;237977;NA;618;image-keyboard-response;;NA;french
620;28;condition1;S_T;S;O;;;;0.0-6.0-3.151;s;329;3;T;Press S if the two images were the same;NA;NA;NA;NA;;;NA;french
621;28;condition1;_;;;;;;0.0-6.0-0.152;;NA;0;;img2/Mfaces/11.jpg;NA;238538;NA;620;image-keyboard-response;;NA;french
622;28;condition1;_;;;;;;0.0-6.0-1.152;;NA;1;;+;NA;238841;NA;621;html-keyboard-response;;NA;french
623;28;condition1;_;;;;;;0.0-6.0-2.152;;NA;2;;img2/Mfaces/13.jpg;NA;239050;NA;622;image-keyboard-response;;NA;french
624;28;condition1;D_M;D;H;;;;0.0-6.0-3.152;d;351;3;M;Press S if the two images were the same;NA;NA;NA;NA;;;NA;french
625;28;condition1;_;;;;;;0.0-6.0-0.153;;NA;0;;img2/faces/14.jpg;NA;239611;NA;624;image-keyboard-response;;NA;french
626;28;condition1;_;;;;;;0.0-6.0-1.153;;NA;1;;+;NA;239919;NA;625;html-keyboard-response;;NA;french
627;28;condition1;_;;;;;;0.0-6.0-2.153;;NA;2;;img2/Mfaces/14.jpg;NA;240154;NA;626;image-keyboard-response;;NA;french
628;28;condition1;S_M;S;H;;;;0.0-6.0-3.153;s;467;3;M;Press S if the two images were the same;NA;NA;NA;NA;;;NA;french
629;28;condition1;_;;;;;;0.0-6.0-0.154;;NA;0;;img2/faces/3.jpg;NA;240837;NA;628;image-keyboard-response;;NA;french
630;28;condition1;_;;;;;;0.0-6.0-1.154;;NA;1;;+;NA;241144;NA;629;html-keyboard-response;;NA;french
631;28;condition1;_;;;;;;0.0-6.0-2.154;;NA;2;;img2/faces/3.jpg;NA;241350;NA;630;image-keyboard-response;;NA;french
632;28;condition1;S_T;S;H;;;;0.0-6.0-3.154;s;346;3;T;Press S if the two images were the same;NA;NA;NA;NA;;;NA;french
633;28;condition1;_;;;;;;0.0-6.0-0.155;;NA;0;;img2/false/10.jpg;NA;241902;NA;632;image-keyboard-response;;NA;french
634;28;condition1;_;;;;;;0.0-6.0-1.155;;NA;1;;+;NA;242214;NA;633;html-keyboard-response;;NA;french
635;28;condition1;_;;;;;;0.0-6.0-2.155;;NA;2;;img2/false/10.jpg;NA;242428;NA;634;image-keyboard-response;;NA;french
636;28;condition1;S_T;S;M;;;;0.0-6.0-3.155;s;322;3;T;Press S if the two images were the same;NA;NA;NA;NA;;;NA;french
637;28;condition1;_;;;;;;0.0-6.0-0.156;;NA;0;;img2/french/12.jpg;NA;242991;NA;636;image-keyboard-response;;NA;french
638;28;condition1;_;;;;;;0.0-6.0-1.156;;NA;1;;+;NA;243303;NA;637;html-keyboard-response;;NA;french
639;28;condition1;_;;;;;;0.0-6.0-2.156;;NA;2;;img2/french/3.jpg;NA;243544;NA;638;image-keyboard-response;;NA;french
640;28;condition1;D_T;D;R;;;;0.0-6.0-3.156;d;404;3;T;Press S if the two images were the same;NA;NA;NA;NA;;;NA;french
641;28;condition1;_;;;;;;0.0-6.0-0.157;;NA;0;;img2/Mtools/9.jpg;NA;244169;NA;640;image-keyboard-response;;NA;french
642;28;condition1;_;;;;;;0.0-6.0-1.157;;NA;1;;+;NA;244473;NA;641;html-keyboard-response;;NA;french
643;28;condition1;_;;;;;;0.0-6.0-2.157;;NA;2;;img2/Mtools/13.jpg;NA;244687;NA;642;image-keyboard-response;;NA;french
644;28;condition1;D_M;D;O;;;;0.0-6.0-3.157;d;451;3;M;Press S if the two images were the same;NA;NA;NA;NA;;;NA;french
645;28;condition1;_;;;;;;0.0-6.0-0.158;;NA;0;;img2/Mfrench/13.jpg;NA;245380;NA;644;image-keyboard-response;;NA;french
646;28;condition1;_;;;;;;0.0-6.0-1.158;;NA;1;;+;NA;245683;NA;645;html-keyboard-response;;NA;french
647;28;condition1;_;;;;;;0.0-6.0-2.158;;NA;2;;img2/Mfrench/10.jpg;NA;245888;NA;646;image-keyboard-response;;NA;french
648;28;condition1;D_M;D;R;;;;0.0-6.0-3.158;s;372;3;M;Press S if the two images were the same;NA;NA;NA;NA;;;NA;french
649;28;condition1;_;;;;;;0.0-6.0-0.159;;NA;0;;img2/tools/2.jpg;NA;246468;NA;648;image-keyboard-response;;NA;french
650;28;condition1;_;;;;;;0.0-6.0-1.159;;NA;1;;+;NA;246777;NA;649;html-keyboard-response;;NA;french
651;28;condition1;_;;;;;;0.0-6.0-2.159;;NA;2;;img2/tools/2.jpg;NA;246990;NA;650;image-keyboard-response;;NA;french
652;28;condition1;S_T;S;O;;;;0.0-6.0-3.159;s;355;3;T;Press S if the two images were the same;NA;NA;NA;NA;;;NA;french
653;28;condition1;_;;;;;;0.0-6.0-0.160;;NA;0;;img2/faces/1.jpg;NA;247554;NA;652;image-keyboard-response;;NA;french
654;28;condition1;_;;;;;;0.0-6.0-1.160;;NA;1;;+;NA;247867;NA;653;html-keyboard-response;;NA;french
655;28;condition1;_;;;;;;0.0-6.0-2.160;;NA;2;;img2/Mfaces/1.jpg;NA;248081;NA;654;image-keyboard-response;;NA;french
656;28;condition1;S_M;S;H;;;;0.0-6.0-3.160;s;371;3;M;Press S if the two images were the same;NA;NA;NA;NA;;;NA;french
657;28;condition1;_;;;;;;0.0-6.0-0.161;;NA;0;;img2/faces/13.jpg;NA;248659;NA;656;image-keyboard-response;;NA;french
658;28;condition1;_;;;;;;0.0-6.0-1.161;;NA;1;;+;NA;248963;NA;657;html-keyboard-response;;NA;french
659;28;condition1;_;;;;;;0.0-6.0-2.161;;NA;2;;img2/faces/13.jpg;NA;249164;NA;658;image-keyboard-response;;NA;french
660;28;condition1;S_T;S;H;;;;0.0-6.0-3.161;s;580;3;T;Press S if the two images were the same;NA;NA;NA;NA;;;NA;french
661;28;condition1;_;;;;;;0.0-6.0-0.162;;NA;0;;img2/tools/11.jpg;NA;249960;NA;660;image-keyboard-response;;NA;french
662;28;condition1;_;;;;;;0.0-6.0-1.162;;NA;1;;+;NA;250266;NA;661;html-keyboard-response;;NA;french
663;28;condition1;_;;;;;;0.0-6.0-2.162;;NA;2;;img2/tools/11.jpg;NA;250481;NA;662;image-keyboard-response;;NA;french
664;28;condition1;S_T;S;O;;;;0.0-6.0-3.162;s;307;3;T;Press S if the two images were the same;NA;NA;NA;NA;;;NA;french
665;28;condition1;_;;;;;;0.0-6.0-0.163;;NA;0;;img2/french/7.jpg;NA;250993;NA;664;image-keyboard-response;;NA;french
666;28;condition1;_;;;;;;0.0-6.0-1.163;;NA;1;;+;NA;251298;NA;665;html-keyboard-response;;NA;french
667;28;condition1;_;;;;;;0.0-6.0-2.163;;NA;2;;img2/french/7.jpg;NA;251509;NA;666;image-keyboard-response;;NA;french
668;28;condition1;S_T;S;R;;;;0.0-6.0-3.163;s;402;3;T;Press S if the two images were the same;NA;NA;NA;NA;;;NA;french
669;28;condition1;_;;;;;;0.0-6.0-0.164;;NA;0;;img2/Mfaces/2.jpg;NA;252136;NA;668;image-keyboard-response;;NA;french
670;28;condition1;_;;;;;;0.0-6.0-1.164;;NA;1;;+;NA;252449;NA;669;html-keyboard-response;;NA;french
671;28;condition1;_;;;;;;0.0-6.0-2.164;;NA;2;;img2/Mfaces/8.jpg;NA;252677;NA;670;image-keyboard-response;;NA;french
672;28;condition1;D_M;D;H;;;;0.0-6.0-3.164;d;389;3;M;Press S if the two images were the same;NA;NA;NA;NA;;;NA;french
673;28;condition1;_;;;;;;0.0-6.0-0.165;;NA;0;;img2/french/10.jpg;NA;253283;NA;672;image-keyboard-response;;NA;french
674;28;condition1;_;;;;;;0.0-6.0-1.165;;NA;1;;+;NA;253590;NA;673;html-keyboard-response;;NA;french
675;28;condition1;_;;;;;;0.0-6.0-2.165;;NA;2;;img2/Mfrench/10.jpg;NA;253795;NA;674;image-keyboard-response;;NA;french
676;28;condition1;S_M;S;R;;;;0.0-6.0-3.165;s;424;3;M;Press S if the two images were the same;NA;NA;NA;NA;;;NA;french
677;28;condition1;_;;;;;;0.0-6.0-0.166;;NA;0;;img2/jap/3.jpg;NA;254432;NA;676;image-keyboard-response;;NA;french
678;28;condition1;_;;;;;;0.0-6.0-1.166;;NA;1;;+;NA;254740;NA;677;html-keyboard-response;;NA;french
679;28;condition1;_;;;;;;0.0-6.0-2.166;;NA;2;;img2/jap/3.jpg;NA;254945;NA;678;image-keyboard-response;;NA;french
680;28;condition1;S_T;S;J;;;;0.0-6.0-3.166;s;663;3;T;Press S if the two images were the same;NA;NA;NA;NA;;;NA;french
681;28;condition1;_;;;;;;0.0-6.0-0.167;;NA;0;;img2/tools/5.jpg;NA;255816;NA;680;image-keyboard-response;;NA;french
682;28;condition1;_;;;;;;0.0-6.0-1.167;;NA;1;;+;NA;256122;NA;681;html-keyboard-response;;NA;french
683;28;condition1;_;;;;;;0.0-6.0-2.167;;NA;2;;img2/Mtools/5.jpg;NA;256330;NA;682;image-keyboard-response;;NA;french
684;28;condition1;S_M;S;O;;;;0.0-6.0-3.167;s;300;3;M;Press S if the two images were the same;NA;NA;NA;NA;;;NA;french
685;28;condition1;_;;;;;;0.0-6.0-0.168;;NA;0;;img2/Mfrench/10.jpg;NA;256842;NA;684;image-keyboard-response;;NA;french
686;28;condition1;_;;;;;;0.0-6.0-1.168;;NA;1;;+;NA;257149;NA;685;html-keyboard-response;;NA;french
687;28;condition1;_;;;;;;0.0-6.0-2.168;;NA;2;;img2/Mfrench/5.jpg;NA;257401;NA;686;image-keyboard-response;;NA;french
688;28;condition1;D_M;D;R;;;;0.0-6.0-3.168;d;466;3;M;Press S if the two images were the same;NA;NA;NA;NA;;;NA;french
689;28;condition1;_;;;;;;0.0-6.0-0.169;;NA;0;;img2/Mfrench/8.jpg;NA;258113;NA;688;image-keyboard-response;;NA;french
690;28;condition1;_;;;;;;0.0-6.0-1.169;;NA;1;;+;NA;258425;NA;689;html-keyboard-response;;NA;french
691;28;condition1;_;;;;;;0.0-6.0-2.169;;NA;2;;img2/Mfrench/12.jpg;NA;258668;NA;690;image-keyboard-response;;NA;french
692;28;condition1;D_M;D;R;;;;0.0-6.0-3.169;d;613;3;M;Press S if the two images were the same;NA;NA;NA;NA;;;NA;french
693;28;condition1;_;;;;;;0.0-6.0-0.170;;NA;0;;img2/tools/6.jpg;NA;259497;NA;692;image-keyboard-response;;NA;french
694;28;condition1;_;;;;;;0.0-6.0-1.170;;NA;1;;+;NA;259805;NA;693;html-keyboard-response;;NA;french
695;28;condition1;_;;;;;;0.0-6.0-2.170;;NA;2;;img2/Mtools/6.jpg;NA;260021;NA;694;image-keyboard-response;;NA;french
696;28;condition1;S_M;S;O;;;;0.0-6.0-3.170;s;265;3;M;Press S if the two images were the same;NA;NA;NA;NA;;;NA;french
697;28;condition1;_;;;;;;0.0-6.0-0.171;;NA;0;;img2/french/1.jpg;NA;260534;NA;696;image-keyboard-response;;NA;french
698;28;condition1;_;;;;;;0.0-6.0-1.171;;NA;1;;+;NA;260847;NA;697;html-keyboard-response;;NA;french
699;28;condition1;_;;;;;;0.0-6.0-2.171;;NA;2;;img2/french/1.jpg;NA;261056;NA;698;image-keyboard-response;;NA;french
700;28;condition1;S_T;S;R;;;;0.0-6.0-3.171;s;285;3;T;Press S if the two images were the same;NA;NA;NA;NA;;;NA;french
701;28;condition1;_;;;;;;0.0-6.0-0.172;;NA;0;;img2/false/3.jpg;NA;261547;NA;700;image-keyboard-response;;NA;french
702;28;condition1;_;;;;;;0.0-6.0-1.172;;NA;1;;+;NA;261852;NA;701;html-keyboard-response;;NA;french
703;28;condition1;_;;;;;;0.0-6.0-2.172;;NA;2;;img2/Mfalse/3.jpg;NA;262107;NA;702;image-keyboard-response;;NA;french
704;28;condition1;S_M;S;M;;;;0.0-6.0-3.172;d;344;3;M;Press S if the two images were the same;NA;NA;NA;NA;;;NA;french
705;28;condition1;_;;;;;;0.0-6.0-0.173;;NA;0;;img2/Mfaces/10.jpg;NA;262655;NA;704;image-keyboard-response;;NA;french
706;28;condition1;_;;;;;;0.0-6.0-1.173;;NA;1;;+;NA;262967;NA;705;html-keyboard-response;;NA;french
707;28;condition1;_;;;;;;0.0-6.0-2.173;;NA;2;;img2/Mfaces/5.jpg;NA;263177;NA;706;image-keyboard-response;;NA;french
708;28;condition1;D_M;D;H;;;;0.0-6.0-3.173;d;492;3;M;Press S if the two images were the same;NA;NA;NA;NA;;;NA;french
709;28;condition1;_;;;;;;0.0-6.0-0.174;;NA;0;;img2/french/9.jpg;NA;263877;NA;708;image-keyboard-response;;NA;french
710;28;condition1;_;;;;;;0.0-6.0-1.174;;NA;1;;+;NA;264189;NA;709;html-keyboard-response;;NA;french
711;28;condition1;_;;;;;;0.0-6.0-2.174;;NA;2;;img2/Mfrench/9.jpg;NA;264438;NA;710;image-keyboard-response;;NA;french
712;28;condition1;S_M;S;R;;;;0.0-6.0-3.174;s;407;3;M;Press S if the two images were the same;NA;NA;NA;NA;;;NA;french
713;28;condition1;_;;;;;;0.0-6.0-0.175;;NA;0;;img2/jap/2.jpg;NA;265049;NA;712;image-keyboard-response;;NA;french
714;28;condition1;_;;;;;;0.0-6.0-1.175;;NA;1;;+;NA;265361;NA;713;html-keyboard-response;;NA;french
715;28;condition1;_;;;;;;0.0-6.0-2.175;;NA;2;;img2/jap/8.jpg;NA;265566;NA;714;image-keyboard-response;;NA;french
716;28;condition1;D_T;D;J;;;;0.0-6.0-3.175;d;499;3;T;Press S if the two images were the same;NA;NA;NA;NA;;;NA;french
717;28;condition1;_;;;;;;0.0-6.0-0.176;;NA;0;;img2/french/11.jpg;NA;266307;NA;716;image-keyboard-response;;NA;french
718;28;condition1;_;;;;;;0.0-6.0-1.176;;NA;1;;+;NA;266618;NA;717;html-keyboard-response;;NA;french
719;28;condition1;_;;;;;;0.0-6.0-2.176;;NA;2;;img2/french/11.jpg;NA;266825;NA;718;image-keyboard-response;;NA;french
720;28;condition1;S_T;S;R;;;;0.0-6.0-3.176;s;400;3;T;Press S if the two images were the same;NA;NA;NA;NA;;;NA;french
721;28;condition1;_;;;;;;0.0-6.0-0.177;;NA;0;;img2/tools/7.jpg;NA;267439;NA;720;image-keyboard-response;;NA;french
722;28;condition1;_;;;;;;0.0-6.0-1.177;;NA;1;;+;NA;267749;NA;721;html-keyboard-response;;NA;french
723;28;condition1;_;;;;;;0.0-6.0-2.177;;NA;2;;img2/Mtools/7.jpg;NA;267954;NA;722;image-keyboard-response;;NA;french
724;28;condition1;S_M;S;O;;;;0.0-6.0-3.177;s;378;3;M;Press S if the two images were the same;NA;NA;NA;NA;;;NA;french
725;28;condition1;_;;;;;;0.0-6.0-0.178;;NA;0;;img2/jap/11.jpg;NA;268546;NA;724;image-keyboard-response;;NA;french
726;28;condition1;_;;;;;;0.0-6.0-1.178;;NA;1;;+;NA;268855;NA;725;html-keyboard-response;;NA;french
727;28;condition1;_;;;;;;0.0-6.0-2.178;;NA;2;;img2/jap/11.jpg;NA;269062;NA;726;image-keyboard-response;;NA;french
728;28;condition1;S_T;S;J;;;;0.0-6.0-3.178;s;357;3;T;Press S if the two images were the same;NA;NA;NA;NA;;;NA;french
729;28;condition1;_;;;;;;0.0-6.0-0.179;;NA;0;;img2/Mfalse/4.jpg;NA;269630;NA;728;image-keyboard-response;;NA;french
730;28;condition1;_;;;;;;0.0-6.0-1.179;;NA;1;;+;NA;269942;NA;729;html-keyboard-response;;NA;french
731;28;condition1;_;;;;;;0.0-6.0-2.179;;NA;2;;img2/Mfalse/8.jpg;NA;270151;NA;730;image-keyboard-response;;NA;french
732;28;condition1;D_M;D;M;;;;0.0-6.0-3.179;d;364;3;M;Press S if the two images were the same;NA;NA;NA;NA;;;NA;french
733;28;condition1;_;;;;;;0.0-6.0-0.180;;NA;0;;img2/tools/14.jpg;NA;270721;NA;732;image-keyboard-response;;NA;french
734;28;condition1;_;;;;;;0.0-6.0-1.180;;NA;1;;+;NA;271026;NA;733;html-keyboard-response;;NA;french
735;28;condition1;_;;;;;;0.0-6.0-2.180;;NA;2;;img2/tools/7.jpg;NA;271235;NA;734;image-keyboard-response;;NA;french
736;28;condition1;D_T;D;O;;;;0.0-6.0-3.180;d;420;3;T;Press S if the two images were the same;NA;NA;NA;NA;;;NA;french
737;28;condition1;_;;;;;;0.0-6.0-0.181;;NA;0;;img2/french/8.jpg;NA;271873;NA;736;image-keyboard-response;;NA;french
738;28;condition1;_;;;;;;0.0-6.0-1.181;;NA;1;;+;NA;272181;NA;737;html-keyboard-response;;NA;french
739;28;condition1;_;;;;;;0.0-6.0-2.181;;NA;2;;img2/french/8.jpg;NA;272391;NA;738;image-keyboard-response;;NA;french
740;28;condition1;S_T;S;R;;;;0.0-6.0-3.181;s;343;3;T;Press S if the two images were the same;NA;NA;NA;NA;;;NA;french
741;28;condition1;_;;;;;;0.0-6.0-0.182;;NA;0;;img2/Mtools/13.jpg;NA;272939;NA;740;image-keyboard-response;;NA;french
742;28;condition1;_;;;;;;0.0-6.0-1.182;;NA;1;;+;NA;273252;NA;741;html-keyboard-response;;NA;french
743;28;condition1;_;;;;;;0.0-6.0-2.182;;NA;2;;img2/Mtools/10.jpg;NA;273474;NA;742;image-keyboard-response;;NA;french
744;28;condition1;D_M;D;O;;;;0.0-6.0-3.182;d;420;3;M;Press S if the two images were the same;NA;NA;NA;NA;;;NA;french
745;28;condition1;_;;;;;;0.0-6.0-0.183;;NA;0;;img2/french/12.jpg;NA;274102;NA;744;image-keyboard-response;;NA;french
746;28;condition1;_;;;;;;0.0-6.0-1.183;;NA;1;;+;NA;274405;NA;745;html-keyboard-response;;NA;french
747;28;condition1;_;;;;;;0.0-6.0-2.183;;NA;2;;img2/french/12.jpg;NA;274619;NA;746;image-keyboard-response;;NA;french
748;28;condition1;S_T;S;R;;;;0.0-6.0-3.183;s;387;3;T;Press S if the two images were the same;NA;NA;NA;NA;;;NA;french
749;28;condition1;_;;;;;;0.0-6.0-0.184;;NA;0;;img2/Mfrench/14.jpg;NA;275223;NA;748;image-keyboard-response;;NA;french
750;28;condition1;_;;;;;;0.0-6.0-1.184;;NA;1;;+;NA;275536;NA;749;html-keyboard-response;;NA;french
751;28;condition1;_;;;;;;0.0-6.0-2.184;;NA;2;;img2/Mfrench/7.jpg;NA;275795;NA;750;image-keyboard-response;;NA;french
752;28;condition1;D_M;D;R;;;;0.0-6.0-3.184;d;405;3;M;Press S if the two images were the same;NA;NA;NA;NA;;;NA;french
753;28;condition1;_;;;;;;0.0-6.0-0.185;;NA;0;;img2/french/11.jpg;NA;276408;NA;752;image-keyboard-response;;NA;french
754;28;condition1;_;;;;;;0.0-6.0-1.185;;NA;1;;+;NA;276723;NA;753;html-keyboard-response;;NA;french
755;28;condition1;_;;;;;;0.0-6.0-2.185;;NA;2;;img2/Mfrench/11.jpg;NA;276969;NA;754;image-keyboard-response;;NA;french
756;28;condition1;S_M;S;R;;;;0.0-6.0-3.185;s;339;3;M;Press S if the two images were the same;NA;NA;NA;NA;;;NA;french
757;28;condition1;_;;;;;;0.0-6.0-0.186;;NA;0;;img2/Mfaces/8.jpg;NA;277520;NA;756;image-keyboard-response;;NA;french
758;28;condition1;_;;;;;;0.0-6.0-1.186;;NA;1;;+;NA;277829;NA;757;html-keyboard-response;;NA;french
759;28;condition1;_;;;;;;0.0-6.0-2.186;;NA;2;;img2/Mfaces/12.jpg;NA;278037;NA;758;image-keyboard-response;;NA;french
760;28;condition1;D_M;D;H;;;;0.0-6.0-3.186;d;455;3;M;Press S if the two images were the same;NA;NA;NA;NA;;;NA;french
761;28;condition1;_;;;;;;0.0-6.0-0.187;;NA;0;;img2/faces/9.jpg;NA;278696;NA;760;image-keyboard-response;;NA;french
762;28;condition1;_;;;;;;0.0-6.0-1.187;;NA;1;;+;NA;279004;NA;761;html-keyboard-response;;NA;french
763;28;condition1;_;;;;;;0.0-6.0-2.187;;NA;2;;img2/faces/9.jpg;NA;279208;NA;762;image-keyboard-response;;NA;french
764;28;condition1;S_T;S;H;;;;0.0-6.0-3.187;s;352;3;T;Press S if the two images were the same;NA;NA;NA;NA;;;NA;french
765;28;condition1;_;;;;;;0.0-6.0-0.188;;NA;0;;img2/french/1.jpg;NA;279762;NA;764;image-keyboard-response;;NA;french
766;28;condition1;_;;;;;;0.0-6.0-1.188;;NA;1;;+;NA;280070;NA;765;html-keyboard-response;;NA;french
767;28;condition1;_;;;;;;0.0-6.0-2.188;;NA;2;;img2/french/10.jpg;NA;280275;NA;766;image-keyboard-response;;NA;french
768;28;condition1;D_T;D;R;;;;0.0-6.0-3.188;d;445;3;T;Press S if the two images were the same;NA;NA;NA;NA;;;NA;french
769;28;condition1;_;;;;;;0.0-6.0-0.189;;NA;0;;img2/jap/1.jpg;NA;280963;NA;768;image-keyboard-response;;NA;french
770;28;condition1;_;;;;;;0.0-6.0-1.189;;NA;1;;+;NA;281277;NA;769;html-keyboard-response;;NA;french
771;28;condition1;_;;;;;;0.0-6.0-2.189;;NA;2;;img2/jap/1.jpg;NA;281484;NA;770;image-keyboard-response;;NA;french
772;28;condition1;S_T;S;J;;;;0.0-6.0-3.189;s;334;3;T;Press S if the two images were the same;NA;NA;NA;NA;;;NA;french
773;28;condition1;_;;;;;;0.0-6.0-0.190;;NA;0;;img2/french/3.jpg;NA;282030;NA;772;image-keyboard-response;;NA;french
774;28;condition1;_;;;;;;0.0-6.0-1.190;;NA;1;;+;NA;282334;NA;773;html-keyboard-response;;NA;french
775;28;condition1;_;;;;;;0.0-6.0-2.190;;NA;2;;img2/Mfrench/3.jpg;NA;282585;NA;774;image-keyboard-response;;NA;french
776;28;condition1;S_M;S;R;;;;0.0-6.0-3.190;s;306;3;M;Press S if the two images were the same;NA;NA;NA;NA;;;NA;french
777;28;condition1;_;;;;;;0.0-6.0-0.191;;NA;0;;img2/faces/11.jpg;NA;283093;NA;776;image-keyboard-response;;NA;french
778;28;condition1;_;;;;;;0.0-6.0-1.191;;NA;1;;+;NA;283404;NA;777;html-keyboard-response;;NA;french
779;28;condition1;_;;;;;;0.0-6.0-2.191;;NA;2;;img2/Mfaces/11.jpg;NA;283617;NA;778;image-keyboard-response;;NA;french
780;28;condition1;S_M;S;H;;;;0.0-6.0-3.191;s;446;3;M;Press S if the two images were the same;NA;NA;NA;NA;;;NA;french
781;28;condition1;_;;;;;;0.0-6.0-0.192;;NA;0;;img2/tools/2.jpg;NA;284268;NA;780;image-keyboard-response;;NA;french
782;28;condition1;_;;;;;;0.0-6.0-1.192;;NA;1;;+;NA;284579;NA;781;html-keyboard-response;;NA;french
783;28;condition1;_;;;;;;0.0-6.0-2.192;;NA;2;;img2/Mtools/2.jpg;NA;284795;NA;782;image-keyboard-response;;NA;french
784;28;condition1;S_M;S;O;;;;0.0-6.0-3.192;s;272;3;M;Press S if the two images were the same;NA;NA;NA;NA;;;NA;french
785;28;condition1;_;;;;;;0.0-6.0-0.193;;NA;0;;img2/french/12.jpg;NA;285279;NA;784;image-keyboard-response;;NA;french
786;28;condition1;_;;;;;;0.0-6.0-1.193;;NA;1;;+;NA;285584;NA;785;html-keyboard-response;;NA;french
787;28;condition1;_;;;;;;0.0-6.0-2.193;;NA;2;;img2/Mfrench/12.jpg;NA;285790;NA;786;image-keyboard-response;;NA;french
788;28;condition1;S_M;S;R;;;;0.0-6.0-3.193;s;323;3;M;Press S if the two images were the same;NA;NA;NA;NA;;;NA;french
789;28;condition1;_;;;;;;0.0-6.0-0.194;;NA;0;;img2/Mtools/12.jpg;NA;286323;NA;788;image-keyboard-response;;NA;french
790;28;condition1;_;;;;;;0.0-6.0-1.194;;NA;1;;+;NA;286637;NA;789;html-keyboard-response;;NA;french
791;28;condition1;_;;;;;;0.0-6.0-2.194;;NA;2;;img2/Mtools/3.jpg;NA;286846;NA;790;image-keyboard-response;;NA;french
792;28;condition1;D_M;D;O;;;;0.0-6.0-3.194;d;363;3;M;Press S if the two images were the same;NA;NA;NA;NA;;;NA;french
793;28;condition1;_;;;;;;0.0-6.0-0.195;;NA;0;;img2/Mfrench/11.jpg;NA;287415;NA;792;image-keyboard-response;;NA;french
794;28;condition1;_;;;;;;0.0-6.0-1.195;;NA;1;;+;NA;287721;NA;793;html-keyboard-response;;NA;french
795;28;condition1;_;;;;;;0.0-6.0-2.195;;NA;2;;img2/Mfrench/13.jpg;NA;287928;NA;794;image-keyboard-response;;NA;french
796;28;condition1;D_M;D;R;;;;0.0-6.0-3.195;d;564;3;M;Press S if the two images were the same;NA;NA;NA;NA;;;NA;french
797;28;condition1;_;;;;;;0.0-6.0-0.196;;NA;0;;img2/jap/13.jpg;NA;288747;NA;796;image-keyboard-response;;NA;french
798;28;condition1;_;;;;;;0.0-6.0-1.196;;NA;1;;+;NA;289061;NA;797;html-keyboard-response;;NA;french
799;28;condition1;_;;;;;;0.0-6.0-2.196;;NA;2;;img2/jap/13.jpg;NA;289270;NA;798;image-keyboard-response;;NA;french
800;28;condition1;S_T;S;J;;;;0.0-6.0-3.196;s;357;3;T;Press S if the two images were the same;NA;NA;NA;NA;;;NA;french
801;28;condition1;_;;;;;;0.0-6.0-0.197;;NA;0;;img2/french/2.jpg;NA;289871;NA;800;image-keyboard-response;;NA;french
802;28;condition1;_;;;;;;0.0-6.0-1.197;;NA;1;;+;NA;290181;NA;801;html-keyboard-response;;NA;french
803;28;condition1;_;;;;;;0.0-6.0-2.197;;NA;2;;img2/french/8.jpg;NA;290393;NA;802;image-keyboard-response;;NA;french
804;28;condition1;D_T;D;R;;;;0.0-6.0-3.197;d;402;3;T;Press S if the two images were the same;NA;NA;NA;NA;;;NA;french
805;28;condition1;_;;;;;;0.0-6.0-0.198;;NA;0;;img2/jap/9.jpg;NA;291038;NA;804;image-keyboard-response;;NA;french
806;28;condition1;_;;;;;;0.0-6.0-1.198;;NA;1;;+;NA;291340;NA;805;html-keyboard-response;;NA;french
807;28;condition1;_;;;;;;0.0-6.0-2.198;;NA;2;;img2/jap/9.jpg;NA;291550;NA;806;image-keyboard-response;;NA;french
808;28;condition1;S_T;S;J;;;;0.0-6.0-3.198;s;307;3;T;Press S if the two images were the same;NA;NA;NA;NA;;;NA;french
809;28;condition1;_;;;;;;0.0-6.0-0.199;;NA;0;;img2/tools/6.jpg;NA;292060;NA;808;image-keyboard-response;;NA;french
810;28;condition1;_;;;;;;0.0-6.0-1.199;;NA;1;;+;NA;292363;NA;809;html-keyboard-response;;NA;french
811;28;condition1;_;;;;;;0.0-6.0-2.199;;NA;2;;img2/tools/12.jpg;NA;292570;NA;810;image-keyboard-response;;NA;french
812;28;condition1;D_T;D;O;;;;0.0-6.0-3.199;d;393;3;T;Press S if the two images were the same;NA;NA;NA;NA;;;NA;french
813;28;condition1;_;;;;;;0.0-6.0-0.200;;NA;0;;img2/faces/12.jpg;NA;293184;NA;812;image-keyboard-response;;NA;french
814;28;condition1;_;;;;;;0.0-6.0-1.200;;NA;1;;+;NA;293500;NA;813;html-keyboard-response;;NA;french
815;28;condition1;_;;;;;;0.0-6.0-2.200;;NA;2;;img2/faces/3.jpg;NA;293703;NA;814;image-keyboard-response;;NA;french
816;28;condition1;D_T;D;H;;;;0.0-6.0-3.200;d;604;3;T;Press S if the two images were the same;NA;NA;NA;NA;;;NA;french
817;28;condition1;_;;;;;;0.0-6.0-0.201;;NA;0;;img2/false/1.jpg;NA;294544;NA;816;image-keyboard-response;;NA;french
818;28;condition1;_;;;;;;0.0-6.0-1.201;;NA;1;;+;NA;294847;NA;817;html-keyboard-response;;NA;french
819;28;condition1;_;;;;;;0.0-6.0-2.201;;NA;2;;img2/false/1.jpg;NA;295054;NA;818;image-keyboard-response;;NA;french
820;28;condition1;S_T;S;M;;;;0.0-6.0-3.201;s;374;3;T;Press S if the two images were the same;NA;NA;NA;NA;;;NA;french
821;28;condition1;_;;;;;;0.0-6.0-0.202;;NA;0;;img2/tools/1.jpg;NA;295648;NA;820;image-keyboard-response;;NA;french
822;28;condition1;_;;;;;;0.0-6.0-1.202;;NA;1;;+;NA;295955;NA;821;html-keyboard-response;;NA;french
823;28;condition1;_;;;;;;0.0-6.0-2.202;;NA;2;;img2/Mtools/1.jpg;NA;296173;NA;822;image-keyboard-response;;NA;french
824;28;condition1;S_M;S;O;;;;0.0-6.0-3.202;s;399;3;M;Press S if the two images were the same;NA;NA;NA;NA;;;NA;french
825;28;condition1;_;;;;;;0.0-6.0-0.203;;NA;0;;img2/Mfalse/8.jpg;NA;296777;NA;824;image-keyboard-response;;NA;french
826;28;condition1;_;;;;;;0.0-6.0-1.203;;NA;1;;+;NA;297088;NA;825;html-keyboard-response;;NA;french
827;28;condition1;_;;;;;;0.0-6.0-2.203;;NA;2;;img2/Mfalse/12.jpg;NA;297328;NA;826;image-keyboard-response;;NA;french
828;28;condition1;D_M;D;M;;;;0.0-6.0-3.203;d;357;3;M;Press S if the two images were the same;NA;NA;NA;NA;;;NA;french
829;28;condition1;_;;;;;;0.0-6.0-0.204;;NA;0;;img2/false/11.jpg;NA;297911;NA;828;image-keyboard-response;;NA;french
830;28;condition1;_;;;;;;0.0-6.0-1.204;;NA;1;;+;NA;298215;NA;829;html-keyboard-response;;NA;french
831;28;condition1;_;;;;;;0.0-6.0-2.204;;NA;2;;img2/false/11.jpg;NA;298422;NA;830;image-keyboard-response;;NA;french
832;28;condition1;S_T;S;M;;;;0.0-6.0-3.204;s;402;3;T;Press S if the two images were the same;NA;NA;NA;NA;;;NA;french
833;28;condition1;_;;;;;;0.0-6.0-0.205;;NA;0;;img2/french/6.jpg;NA;299079;NA;832;image-keyboard-response;;NA;french
834;28;condition1;_;;;;;;0.0-6.0-1.205;;NA;1;;+;NA;299381;NA;833;html-keyboard-response;;NA;french
835;28;condition1;_;;;;;;0.0-6.0-2.205;;NA;2;;img2/french/6.jpg;NA;299586;NA;834;image-keyboard-response;;NA;french
836;28;condition1;S_T;S;R;;;;0.0-6.0-3.205;s;376;3;T;Press S if the two images were the same;NA;NA;NA;NA;;;NA;french
837;28;condition1;_;;;;;;0.0-6.0-0.206;;NA;0;;img2/faces/2.jpg;NA;300189;NA;836;image-keyboard-response;;NA;french
838;28;condition1;_;;;;;;0.0-6.0-1.206;;NA;1;;+;NA;300497;NA;837;html-keyboard-response;;NA;french
839;28;condition1;_;;;;;;0.0-6.0-2.206;;NA;2;;img2/faces/8.jpg;NA;300713;NA;838;image-keyboard-response;;NA;french
840;28;condition1;D_T;D;H;;;;0.0-6.0-3.206;d;407;3;T;Press S if the two images were the same;NA;NA;NA;NA;;;NA;french
841;28;condition1;_;;;;;;0.0-6.0-0.207;;NA;0;;img2/tools/12.jpg;NA;301329;NA;840;image-keyboard-response;;NA;french
842;28;condition1;_;;;;;;0.0-6.0-1.207;;NA;1;;+;NA;301632;NA;841;html-keyboard-response;;NA;french
843;28;condition1;_;;;;;;0.0-6.0-2.207;;NA;2;;img2/Mtools/12.jpg;NA;301843;NA;842;image-keyboard-response;;NA;french
844;28;condition1;S_M;S;O;;;;0.0-6.0-3.207;s;453;3;M;Press S if the two images were the same;NA;NA;NA;NA;;;NA;french
845;28;condition1;_;;;;;;0.0-6.0-0.208;;NA;0;;img2/tools/13.jpg;NA;302517;NA;844;image-keyboard-response;;NA;french
846;28;condition1;_;;;;;;0.0-6.0-1.208;;NA;1;;+;NA;302822;NA;845;html-keyboard-response;;NA;french
847;28;condition1;_;;;;;;0.0-6.0-2.208;;NA;2;;img2/Mtools/13.jpg;NA;303030;NA;846;image-keyboard-response;;NA;french
848;28;condition1;S_M;S;O;;;;0.0-6.0-3.208;s;836;3;M;Press S if the two images were the same;NA;NA;NA;NA;;;NA;french
849;28;condition1;_;;;;;;0.0-6.0-0.209;;NA;0;;img2/Mfrench/7.jpg;NA;304081;NA;848;image-keyboard-response;;NA;french
850;28;condition1;_;;;;;;0.0-6.0-1.209;;NA;1;;+;NA;304381;NA;849;html-keyboard-response;;NA;french
851;28;condition1;_;;;;;;0.0-6.0-2.209;;NA;2;;img2/Mfrench/6.jpg;NA;304626;NA;850;image-keyboard-response;;NA;french
852;28;condition1;D_M;D;R;;;;0.0-6.0-3.209;d;485;3;M;Press S if the two images were the same;NA;NA;NA;NA;;;NA;french
853;28;condition1;_;;;;;;0.0-6.0-0.210;;NA;0;;img2/Mfrench/6.jpg;NA;305325;NA;852;image-keyboard-response;;NA;french
854;28;condition1;_;;;;;;0.0-6.0-1.210;;NA;1;;+;NA;305639;NA;853;html-keyboard-response;;NA;french
855;28;condition1;_;;;;;;0.0-6.0-2.210;;NA;2;;img2/Mfrench/12.jpg;NA;305848;NA;854;image-keyboard-response;;NA;french
856;28;condition1;D_M;D;R;;;;0.0-6.0-3.210;d;543;3;M;Press S if the two images were the same;NA;NA;NA;NA;;;NA;french
857;28;condition1;_;;;;;;0.0-6.0-0.211;;NA;0;;img2/false/2.jpg;NA;306607;NA;856;image-keyboard-response;;NA;french
858;28;condition1;_;;;;;;0.0-6.0-1.211;;NA;1;;+;NA;306911;NA;857;html-keyboard-response;;NA;french
859;28;condition1;_;;;;;;0.0-6.0-2.211;;NA;2;;img2/false/8.jpg;NA;307153;NA;858;image-keyboard-response;;NA;french
860;28;condition1;D_T;D;M;;;;0.0-6.0-3.211;d;739;3;T;Press S if the two images were the same;NA;NA;NA;NA;;;NA;french
861;28;condition1;_;;;;;;0.0-6.0-0.212;;NA;0;;img2/french/9.jpg;NA;308103;NA;860;image-keyboard-response;;NA;french
862;28;condition1;_;;;;;;0.0-6.0-1.212;;NA;1;;+;NA;308415;NA;861;html-keyboard-response;;NA;french
863;28;condition1;_;;;;;;0.0-6.0-2.212;;NA;2;;img2/french/9.jpg;NA;308623;NA;862;image-keyboard-response;;NA;french
864;28;condition1;S_T;S;R;;;;0.0-6.0-3.212;s;310;3;T;Press S if the two images were the same;NA;NA;NA;NA;;;NA;french
865;28;condition1;_;;;;;;0.0-6.0-0.213;;NA;0;;img2/french/13.jpg;NA;309166;NA;864;image-keyboard-response;;NA;french
866;28;condition1;_;;;;;;0.0-6.0-1.213;;NA;1;;+;NA;309468;NA;865;html-keyboard-response;;NA;french
867;28;condition1;_;;;;;;0.0-6.0-2.213;;NA;2;;img2/Mfrench/13.jpg;NA;309679;NA;866;image-keyboard-response;;NA;french
868;28;condition1;S_M;S;R;;;;0.0-6.0-3.213;s;411;3;M;Press S if the two images were the same;NA;NA;NA;NA;;;NA;french
869;28;condition1;_;;;;;;0.0-6.0-0.214;;NA;0;;img2/tools/8.jpg;NA;310304;NA;868;image-keyboard-response;;NA;french
870;28;condition1;_;;;;;;0.0-6.0-1.214;;NA;1;;+;NA;310615;NA;869;html-keyboard-response;;NA;french
871;28;condition1;_;;;;;;0.0-6.0-2.214;;NA;2;;img2/tools/8.jpg;NA;310825;NA;870;image-keyboard-response;;NA;french
872;28;condition1;S_T;S;O;;;;0.0-6.0-3.214;s;502;3;T;Press S if the two images were the same;NA;NA;NA;NA;;;NA;french
873;28;condition1;_;;;;;;0.0-6.0-0.215;;NA;0;;img2/french/13.jpg;NA;311541;NA;872;image-keyboard-response;;NA;french
874;28;condition1;_;;;;;;0.0-6.0-1.215;;NA;1;;+;NA;311852;NA;873;html-keyboard-response;;NA;french
875;28;condition1;_;;;;;;0.0-6.0-2.215;;NA;2;;img2/french/13.jpg;NA;312067;NA;874;image-keyboard-response;;NA;french
876;28;condition1;S_T;S;R;;;;0.0-6.0-3.215;s;411;3;T;Press S if the two images were the same;NA;NA;NA;NA;;;NA;french
877;28;condition1;_;;;;;;0.0-6.0-0.216;;NA;0;;img2/jap/6.jpg;NA;312719;NA;876;image-keyboard-response;;NA;french
878;28;condition1;_;;;;;;0.0-6.0-1.216;;NA;1;;+;NA;313032;NA;877;html-keyboard-response;;NA;french
879;28;condition1;_;;;;;;0.0-6.0-2.216;;NA;2;;img2/jap/12.jpg;NA;313268;NA;878;image-keyboard-response;;NA;french
880;28;condition1;D_T;D;J;;;;0.0-6.0-3.216;d;423;3;T;Press S if the two images were the same;NA;NA;NA;NA;;;NA;french
881;28;condition1;_;;;;;;0.0-6.0-0.217;;NA;0;;img2/tools/10.jpg;NA;313907;NA;880;image-keyboard-response;;NA;french
882;28;condition1;_;;;;;;0.0-6.0-1.217;;NA;1;;+;NA;314217;NA;881;html-keyboard-response;;NA;french
883;28;condition1;_;;;;;;0.0-6.0-2.217;;NA;2;;img2/tools/10.jpg;NA;314424;NA;882;image-keyboard-response;;NA;french
884;28;condition1;S_T;S;O;;;;0.0-6.0-3.217;s;262;3;T;Press S if the two images were the same;NA;NA;NA;NA;;;NA;french
885;28;condition1;_;;;;;;0.0-6.0-0.218;;NA;0;;img2/Mjap/10.jpg;NA;314937;NA;884;image-keyboard-response;;NA;french
886;28;condition1;_;;;;;;0.0-6.0-1.218;;NA;1;;+;NA;315238;NA;885;html-keyboard-response;;NA;french
887;28;condition1;_;;;;;;0.0-6.0-2.218;;NA;2;;img2/Mjap/5.jpg;NA;315492;NA;886;image-keyboard-response;;NA;french
888;28;condition1;D_M;D;J;;;;0.0-6.0-3.218;d;350;3;M;Press S if the two images were the same;NA;NA;NA;NA;;;NA;french
889;28;condition1;_;;;;;;0.0-6.0-0.219;;NA;0;;img2/Mfrench/3.jpg;NA;316056;NA;888;image-keyboard-response;;NA;french
890;28;condition1;_;;;;;;0.0-6.0-1.219;;NA;1;;+;NA;316371;NA;889;html-keyboard-response;;NA;french
891;28;condition1;_;;;;;;0.0-6.0-2.219;;NA;2;;img2/Mfrench/2.jpg;NA;316624;NA;890;image-keyboard-response;;NA;french
892;28;condition1;D_M;D;R;;;;0.0-6.0-3.219;d;372;3;M;Press S if the two images were the same;NA;NA;NA;NA;;;NA;french
893;28;condition1;_;;;;;;0.0-6.0-0.220;;NA;0;;img2/faces/12.jpg;NA;317206;NA;892;image-keyboard-response;;NA;french
894;28;condition1;_;;;;;;0.0-6.0-1.220;;NA;1;;+;NA;317509;NA;893;html-keyboard-response;;NA;french
895;28;condition1;_;;;;;;0.0-6.0-2.220;;NA;2;;img2/faces/12.jpg;NA;317720;NA;894;image-keyboard-response;;NA;french
896;28;condition1;S_T;S;H;;;;0.0-6.0-3.220;s;361;3;T;Press S if the two images were the same;NA;NA;NA;NA;;;NA;french
897;28;condition1;_;;;;;;0.0-6.0-0.221;;NA;0;;img2/french/14.jpg;NA;318311;NA;896;image-keyboard-response;;NA;french
898;28;condition1;_;;;;;;0.0-6.0-1.221;;NA;1;;+;NA;318624;NA;897;html-keyboard-response;;NA;french
899;28;condition1;_;;;;;;0.0-6.0-2.221;;NA;2;;img2/french/14.jpg;NA;318836;NA;898;image-keyboard-response;;NA;french
