X;workerid;proliferate.condition;samediff_mirrornorm;samediff;categories;failed_audio;failed_images;failed_video;internal_node_id;response;rt;sequence_id;same_mirror_normal;stimulus;success;time_elapsed;timeout;trial_index;trial_type;view_history;error;language
1;18;condition1;_;;;[];[];[];0.0-0.0;;NA;0;;;TRUE;1298;FALSE;0;preload;;NA;japanese
2;18;condition1;_;;;;;;0.0-1.0;;35605;1;;;NA;36904;NA;1;instructions;[{'page_index': 0;NA;japanese
3;18;condition1;_;;;;;;0.0-2.0-0.0;;NA;0;;img2/tools/2.jpg;NA;37115;NA;2;image-keyboard-response;;NA;japanese
4;18;condition1;_;;;;;;0.0-2.0-1.0;;NA;1;;+;NA;37418;NA;3;html-keyboard-response;;NA;japanese
5;18;condition1;_;;;;;;0.0-2.0-2.0;;NA;2;;img2/Mtools/2.jpg;NA;37634;NA;4;image-keyboard-response;;NA;japanese
6;18;condition1;_M;;;;;;0.0-2.0-3.0;s;2148;3;M;Press S if the two images were the same;NA;NA;NA;NA;;;NA;japanese
7;18;condition1;_;;;;;;0.0-3.0;;4214;3;;;NA;43997;NA;6;instructions;[{'page_index': 0;NA;japanese
8;18;condition1;_;;;;;;0.0-4.0-0.0;;NA;0;;img2/jap/2.jpg;NA;44217;NA;7;image-keyboard-response;;NA;japanese
9;18;condition1;_;;;;;;0.0-4.0-1.0;;NA;1;;+;NA;44526;NA;8;html-keyboard-response;;NA;japanese
10;18;condition1;_;;;;;;0.0-4.0-2.0;;NA;2;;img2/jap/3.jpg;NA;44741;NA;9;image-keyboard-response;;NA;japanese
11;18;condition1;_T;;;;;;0.0-4.0-3.0;d;2511;3;T;Press S if the two images were the same;NA;NA;NA;NA;;;NA;japanese
12;18;condition1;_;;;;;;0.0-5.0;;2039;5;;;NA;49293;NA;11;instructions;[{'page_index': 0;NA;japanese
13;18;condition1;_;;;;;;0.0-6.0-0.0;;NA;0;;img2/Mfalse/12.jpg;NA;49500;NA;12;image-keyboard-response;;NA;japanese
14;18;condition1;_;;;;;;0.0-6.0-1.0;;NA;1;;+;NA;49810;NA;13;html-keyboard-response;;NA;japanese
15;18;condition1;_;;;;;;0.0-6.0-2.0;;NA;2;;img2/Mfalse/8.jpg;NA;50025;NA;14;image-keyboard-response;;NA;japanese
16;18;condition1;D_M;D;M;;;;0.0-6.0-3.0;d;581;3;M;Press S if the two images were the same;NA;NA;NA;NA;;;NA;japanese
17;18;condition1;_;;;;;;0.0-6.0-0.1;;NA;0;;img2/jap/6.jpg;NA;50822;NA;16;image-keyboard-response;;NA;japanese
18;18;condition1;_;;;;;;0.0-6.0-1.1;;NA;1;;+;NA;51130;NA;17;html-keyboard-response;;NA;japanese
19;18;condition1;_;;;;;;0.0-6.0-2.1;;NA;2;;img2/jap/6.jpg;NA;51344;NA;18;image-keyboard-response;;NA;japanese
20;18;condition1;S_T;S;J;;;;0.0-6.0-3.1;d;901;3;T;Press S if the two images were the same;NA;NA;NA;NA;;;NA;japanese
21;18;condition1;_;;;;;;0.0-6.0-0.2;;NA;0;;img2/Mfalse/7.jpg;NA;52465;NA;20;image-keyboard-response;;NA;japanese
22;18;condition1;_;;;;;;0.0-6.0-1.2;;NA;1;;+;NA;52772;NA;21;html-keyboard-response;;NA;japanese
23;18;condition1;_;;;;;;0.0-6.0-2.2;;NA;2;;img2/Mfalse/13.jpg;NA;52987;NA;22;image-keyboard-response;;NA;japanese
24;18;condition1;D_M;D;M;;;;0.0-6.0-3.2;d;578;3;M;Press S if the two images were the same;NA;NA;NA;NA;;;NA;japanese
25;18;condition1;_;;;;;;0.0-6.0-0.3;;NA;0;;img2/tools/13.jpg;NA;53775;NA;24;image-keyboard-response;;NA;japanese
26;18;condition1;_;;;;;;0.0-6.0-1.3;;NA;1;;+;NA;54084;NA;25;html-keyboard-response;;NA;japanese
27;18;condition1;_;;;;;;0.0-6.0-2.3;;NA;2;;img2/Mtools/13.jpg;NA;54300;NA;26;image-keyboard-response;;NA;japanese
28;18;condition1;S_M;S;O;;;;0.0-6.0-3.3;d;554;3;M;Press S if the two images were the same;NA;NA;NA;NA;;;NA;japanese
29;18;condition1;_;;;;;;0.0-6.0-0.4;;NA;0;;img2/faces/13.jpg;NA;55064;NA;28;image-keyboard-response;;NA;japanese
30;18;condition1;_;;;;;;0.0-6.0-1.4;;NA;1;;+;NA;55386;NA;29;html-keyboard-response;;NA;japanese
31;18;condition1;_;;;;;;0.0-6.0-2.4;;NA;2;;img2/faces/11.jpg;NA;55602;NA;30;image-keyboard-response;;NA;japanese
32;18;condition1;D_T;D;H;;;;0.0-6.0-3.4;d;420;3;T;Press S if the two images were the same;NA;NA;NA;NA;;;NA;japanese
33;18;condition1;_;;;;;;0.0-6.0-0.5;;NA;0;;img2/jap/8.jpg;NA;56235;NA;32;image-keyboard-response;;NA;japanese
34;18;condition1;_;;;;;;0.0-6.0-1.5;;NA;1;;+;NA;56544;NA;33;html-keyboard-response;;NA;japanese
35;18;condition1;_;;;;;;0.0-6.0-2.5;;NA;2;;img2/jap/9.jpg;NA;56761;NA;34;image-keyboard-response;;NA;japanese
36;18;condition1;D_T;D;J;;;;0.0-6.0-3.5;d;494;3;T;Press S if the two images were the same;NA;NA;NA;NA;;;NA;japanese
37;18;condition1;_;;;;;;0.0-6.0-0.6;;NA;0;;img2/french/3.jpg;NA;57467;NA;36;image-keyboard-response;;NA;japanese
38;18;condition1;_;;;;;;0.0-6.0-1.6;;NA;1;;+;NA;57775;NA;37;html-keyboard-response;;NA;japanese
39;18;condition1;_;;;;;;0.0-6.0-2.6;;NA;2;;img2/french/13.jpg;NA;57992;NA;38;image-keyboard-response;;NA;japanese
40;18;condition1;D_T;D;R;;;;0.0-6.0-3.6;d;469;3;T;Press S if the two images were the same;NA;NA;NA;NA;;;NA;japanese
41;18;condition1;_;;;;;;0.0-6.0-0.7;;NA;0;;img2/jap/1.jpg;NA;58671;NA;40;image-keyboard-response;;NA;japanese
42;18;condition1;_;;;;;;0.0-6.0-1.7;;NA;1;;+;NA;58995;NA;41;html-keyboard-response;;NA;japanese
43;18;condition1;_;;;;;;0.0-6.0-2.7;;NA;2;;img2/jap/7.jpg;NA;59211;NA;42;image-keyboard-response;;NA;japanese
44;18;condition1;D_T;D;J;;;;0.0-6.0-3.7;d;602;3;T;Press S if the two images were the same;NA;NA;NA;NA;;;NA;japanese
45;18;condition1;_;;;;;;0.0-6.0-0.8;;NA;0;;img2/jap/10.jpg;NA;60026;NA;44;image-keyboard-response;;NA;japanese
46;18;condition1;_;;;;;;0.0-6.0-1.8;;NA;1;;+;NA;60333;NA;45;html-keyboard-response;;NA;japanese
47;18;condition1;_;;;;;;0.0-6.0-2.8;;NA;2;;img2/jap/10.jpg;NA;60547;NA;46;image-keyboard-response;;NA;japanese
48;18;condition1;S_T;S;J;;;;0.0-6.0-3.8;s;379;3;T;Press S if the two images were the same;NA;NA;NA;NA;;;NA;japanese
49;18;condition1;_;;;;;;0.0-6.0-0.9;;NA;0;;img2/Mfalse/8.jpg;NA;61147;NA;48;image-keyboard-response;;NA;japanese
50;18;condition1;_;;;;;;0.0-6.0-1.9;;NA;1;;+;NA;61454;NA;49;html-keyboard-response;;NA;japanese
51;18;condition1;_;;;;;;0.0-6.0-2.9;;NA;2;;img2/Mfalse/9.jpg;NA;61669;NA;50;image-keyboard-response;;NA;japanese
52;18;condition1;D_M;D;M;;;;0.0-6.0-3.9;d;435;3;M;Press S if the two images were the same;NA;NA;NA;NA;;;NA;japanese
53;18;condition1;_;;;;;;0.0-6.0-0.10;;NA;0;;img2/tools/10.jpg;NA;62314;NA;52;image-keyboard-response;;NA;japanese
54;18;condition1;_;;;;;;0.0-6.0-1.10;;NA;1;;+;NA;62623;NA;53;html-keyboard-response;;NA;japanese
55;18;condition1;_;;;;;;0.0-6.0-2.10;;NA;2;;img2/Mtools/10.jpg;NA;62837;NA;54;image-keyboard-response;;NA;japanese
56;18;condition1;S_M;S;O;;;;0.0-6.0-3.10;d;328;3;M;Press S if the two images were the same;NA;NA;NA;NA;;;NA;japanese
57;18;condition1;_;;;;;;0.0-6.0-0.11;;NA;0;;img2/Mjap/7.jpg;NA;63387;NA;56;image-keyboard-response;;NA;japanese
58;18;condition1;_;;;;;;0.0-6.0-1.11;;NA;1;;+;NA;63695;NA;57;html-keyboard-response;;NA;japanese
59;18;condition1;_;;;;;;0.0-6.0-2.11;;NA;2;;img2/Mjap/13.jpg;NA;63911;NA;58;image-keyboard-response;;NA;japanese
60;18;condition1;D_M;D;J;;;;0.0-6.0-3.11;d;647;3;M;Press S if the two images were the same;NA;NA;NA;NA;;;NA;japanese
61;18;condition1;_;;;;;;0.0-6.0-0.12;;NA;0;;img2/false/1.jpg;NA;64767;NA;60;image-keyboard-response;;NA;japanese
62;18;condition1;_;;;;;;0.0-6.0-1.12;;NA;1;;+;NA;65074;NA;61;html-keyboard-response;;NA;japanese
63;18;condition1;_;;;;;;0.0-6.0-2.12;;NA;2;;img2/Mfalse/1.jpg;NA;65290;NA;62;image-keyboard-response;;NA;japanese
64;18;condition1;S_M;S;M;;;;0.0-6.0-3.12;s;1005;3;M;Press S if the two images were the same;NA;NA;NA;NA;;;NA;japanese
65;18;condition1;_;;;;;;0.0-6.0-0.13;;NA;0;;img2/Mfaces/2.jpg;NA;66509;NA;64;image-keyboard-response;;NA;japanese
66;18;condition1;_;;;;;;0.0-6.0-1.13;;NA;1;;+;NA;66820;NA;65;html-keyboard-response;;NA;japanese
67;18;condition1;_;;;;;;0.0-6.0-2.13;;NA;2;;img2/Mfaces/9.jpg;NA;67035;NA;66;image-keyboard-response;;NA;japanese
68;18;condition1;D_M;D;H;;;;0.0-6.0-3.13;d;346;3;M;Press S if the two images were the same;NA;NA;NA;NA;;;NA;japanese
69;18;condition1;_;;;;;;0.0-6.0-0.14;;NA;0;;img2/tools/3.jpg;NA;67601;NA;68;image-keyboard-response;;NA;japanese
70;18;condition1;_;;;;;;0.0-6.0-1.14;;NA;1;;+;NA;67911;NA;69;html-keyboard-response;;NA;japanese
71;18;condition1;_;;;;;;0.0-6.0-2.14;;NA;2;;img2/Mtools/3.jpg;NA;68125;NA;70;image-keyboard-response;;NA;japanese
72;18;condition1;S_M;S;O;;;;0.0-6.0-3.14;d;615;3;M;Press S if the two images were the same;NA;NA;NA;NA;;;NA;japanese
73;18;condition1;_;;;;;;0.0-6.0-0.15;;NA;0;;img2/false/8.jpg;NA;68951;NA;72;image-keyboard-response;;NA;japanese
74;18;condition1;_;;;;;;0.0-6.0-1.15;;NA;1;;+;NA;69261;NA;73;html-keyboard-response;;NA;japanese
75;18;condition1;_;;;;;;0.0-6.0-2.15;;NA;2;;img2/false/9.jpg;NA;69476;NA;74;image-keyboard-response;;NA;japanese
76;18;condition1;D_T;D;M;;;;0.0-6.0-3.15;d;778;3;T;Press S if the two images were the same;NA;NA;NA;NA;;;NA;japanese
77;18;condition1;_;;;;;;0.0-6.0-0.16;;NA;0;;img2/false/4.jpg;NA;70472;NA;76;image-keyboard-response;;NA;japanese
78;18;condition1;_;;;;;;0.0-6.0-1.16;;NA;1;;+;NA;70793;NA;77;html-keyboard-response;;NA;japanese
79;18;condition1;_;;;;;;0.0-6.0-2.16;;NA;2;;img2/false/4.jpg;NA;71009;NA;78;image-keyboard-response;;NA;japanese
80;18;condition1;S_T;S;M;;;;0.0-6.0-3.16;s;676;3;T;Press S if the two images were the same;NA;NA;NA;NA;;;NA;japanese
81;18;condition1;_;;;;;;0.0-6.0-0.17;;NA;0;;img2/french/13.jpg;NA;71901;NA;80;image-keyboard-response;;NA;japanese
82;18;condition1;_;;;;;;0.0-6.0-1.17;;NA;1;;+;NA;72208;NA;81;html-keyboard-response;;NA;japanese
83;18;condition1;_;;;;;;0.0-6.0-2.17;;NA;2;;img2/Mfrench/13.jpg;NA;72421;NA;82;image-keyboard-response;;NA;japanese
84;18;condition1;S_M;S;R;;;;0.0-6.0-3.17;d;625;3;M;Press S if the two images were the same;NA;NA;NA;NA;;;NA;japanese
85;18;condition1;_;;;;;;0.0-6.0-0.18;;NA;0;;img2/tools/5.jpg;NA;73258;NA;84;image-keyboard-response;;NA;japanese
86;18;condition1;_;;;;;;0.0-6.0-1.18;;NA;1;;+;NA;73569;NA;85;html-keyboard-response;;NA;japanese
87;18;condition1;_;;;;;;0.0-6.0-2.18;;NA;2;;img2/tools/5.jpg;NA;73782;NA;86;image-keyboard-response;;NA;japanese
88;18;condition1;S_T;S;O;;;;0.0-6.0-3.18;s;449;3;T;Press S if the two images were the same;NA;NA;NA;NA;;;NA;japanese
89;18;condition1;_;;;;;;0.0-6.0-0.19;;NA;0;;img2/faces/5.jpg;NA;74448;NA;88;image-keyboard-response;;NA;japanese
90;18;condition1;_;;;;;;0.0-6.0-1.19;;NA;1;;+;NA;74757;NA;89;html-keyboard-response;;NA;japanese
91;18;condition1;_;;;;;;0.0-6.0-2.19;;NA;2;;img2/faces/5.jpg;NA;74973;NA;90;image-keyboard-response;;NA;japanese
92;18;condition1;S_T;S;H;;;;0.0-6.0-3.19;s;376;3;T;Press S if the two images were the same;NA;NA;NA;NA;;;NA;japanese
93;18;condition1;_;;;;;;0.0-6.0-0.20;;NA;0;;img2/Mjap/4.jpg;NA;75559;NA;92;image-keyboard-response;;NA;japanese
94;18;condition1;_;;;;;;0.0-6.0-1.20;;NA;1;;+;NA;75870;NA;93;html-keyboard-response;;NA;japanese
95;18;condition1;_;;;;;;0.0-6.0-2.20;;NA;2;;img2/Mjap/12.jpg;NA;76083;NA;94;image-keyboard-response;;NA;japanese
96;18;condition1;D_M;D;J;;;;0.0-6.0-3.20;d;437;3;M;Press S if the two images were the same;NA;NA;NA;NA;;;NA;japanese
97;18;condition1;_;;;;;;0.0-6.0-0.21;;NA;0;;img2/jap/6.jpg;NA;76734;NA;96;image-keyboard-response;;NA;japanese
98;18;condition1;_;;;;;;0.0-6.0-1.21;;NA;1;;+;NA;77040;NA;97;html-keyboard-response;;NA;japanese
99;18;condition1;_;;;;;;0.0-6.0-2.21;;NA;2;;img2/jap/14.jpg;NA;77254;NA;98;image-keyboard-response;;NA;japanese
100;18;condition1;D_T;D;J;;;;0.0-6.0-3.21;d;904;3;T;Press S if the two images were the same;NA;NA;NA;NA;;;NA;japanese
101;18;condition1;_;;;;;;0.0-6.0-0.22;;NA;0;;img2/tools/12.jpg;NA;78359;NA;100;image-keyboard-response;;NA;japanese
102;18;condition1;_;;;;;;0.0-6.0-1.22;;NA;1;;+;NA;78665;NA;101;html-keyboard-response;;NA;japanese
103;18;condition1;_;;;;;;0.0-6.0-2.22;;NA;2;;img2/Mtools/12.jpg;NA;78883;NA;102;image-keyboard-response;;NA;japanese
104;18;condition1;S_M;S;O;;;;0.0-6.0-3.22;d;540;3;M;Press S if the two images were the same;NA;NA;NA;NA;;;NA;japanese
105;18;condition1;_;;;;;;0.0-6.0-0.23;;NA;0;;img2/french/12.jpg;NA;79636;NA;104;image-keyboard-response;;NA;japanese
106;18;condition1;_;;;;;;0.0-6.0-1.23;;NA;1;;+;NA;79943;NA;105;html-keyboard-response;;NA;japanese
107;18;condition1;_;;;;;;0.0-6.0-2.23;;NA;2;;img2/french/12.jpg;NA;80158;NA;106;image-keyboard-response;;NA;japanese
108;18;condition1;S_T;S;R;;;;0.0-6.0-3.23;s;367;3;T;Press S if the two images were the same;NA;NA;NA;NA;;;NA;japanese
109;18;condition1;_;;;;;;0.0-6.0-0.24;;NA;0;;img2/french/1.jpg;NA;80744;NA;108;image-keyboard-response;;NA;japanese
110;18;condition1;_;;;;;;0.0-6.0-1.24;;NA;1;;+;NA;81050;NA;109;html-keyboard-response;;NA;japanese
111;18;condition1;_;;;;;;0.0-6.0-2.24;;NA;2;;img2/french/7.jpg;NA;81264;NA;110;image-keyboard-response;;NA;japanese
112;18;condition1;D_T;D;R;;;;0.0-6.0-3.24;d;581;3;T;Press S if the two images were the same;NA;NA;NA;NA;;;NA;japanese
113;18;condition1;_;;;;;;0.0-6.0-0.25;;NA;0;;img2/false/12.jpg;NA;82063;NA;112;image-keyboard-response;;NA;japanese
114;18;condition1;_;;;;;;0.0-6.0-1.25;;NA;1;;+;NA;82386;NA;113;html-keyboard-response;;NA;japanese
115;18;condition1;_;;;;;;0.0-6.0-2.25;;NA;2;;img2/false/8.jpg;NA;82588;NA;114;image-keyboard-response;;NA;japanese
116;18;condition1;D_T;D;M;;;;0.0-6.0-3.25;d;450;3;T;Press S if the two images were the same;NA;NA;NA;NA;;;NA;japanese
117;18;condition1;_;;;;;;0.0-6.0-0.26;;NA;0;;img2/false/1.jpg;NA;83251;NA;116;image-keyboard-response;;NA;japanese
118;18;condition1;_;;;;;;0.0-6.0-1.26;;NA;1;;+;NA;83559;NA;117;html-keyboard-response;;NA;japanese
119;18;condition1;_;;;;;;0.0-6.0-2.26;;NA;2;;img2/false/1.jpg;NA;83760;NA;118;image-keyboard-response;;NA;japanese
120;18;condition1;S_T;S;M;;;;0.0-6.0-3.26;s;348;3;T;Press S if the two images were the same;NA;NA;NA;NA;;;NA;japanese
121;18;condition1;_;;;;;;0.0-6.0-0.27;;NA;0;;img2/french/5.jpg;NA;84329;NA;120;image-keyboard-response;;NA;japanese
122;18;condition1;_;;;;;;0.0-6.0-1.27;;NA;1;;+;NA;84637;NA;121;html-keyboard-response;;NA;japanese
123;18;condition1;_;;;;;;0.0-6.0-2.27;;NA;2;;img2/french/5.jpg;NA;84852;NA;122;image-keyboard-response;;NA;japanese
124;18;condition1;S_T;S;R;;;;0.0-6.0-3.27;s;409;3;T;Press S if the two images were the same;NA;NA;NA;NA;;;NA;japanese
125;18;condition1;_;;;;;;0.0-6.0-0.28;;NA;0;;img2/french/9.jpg;NA;85469;NA;124;image-keyboard-response;;NA;japanese
126;18;condition1;_;;;;;;0.0-6.0-1.28;;NA;1;;+;NA;85776;NA;125;html-keyboard-response;;NA;japanese
127;18;condition1;_;;;;;;0.0-6.0-2.28;;NA;2;;img2/Mfrench/9.jpg;NA;85988;NA;126;image-keyboard-response;;NA;japanese
128;18;condition1;S_M;S;R;;;;0.0-6.0-3.28;d;385;3;M;Press S if the two images were the same;NA;NA;NA;NA;;;NA;japanese
129;18;condition1;_;;;;;;0.0-6.0-0.29;;NA;0;;img2/french/10.jpg;NA;86585;NA;128;image-keyboard-response;;NA;japanese
130;18;condition1;_;;;;;;0.0-6.0-1.29;;NA;1;;+;NA;86907;NA;129;html-keyboard-response;;NA;japanese
131;18;condition1;_;;;;;;0.0-6.0-2.29;;NA;2;;img2/Mfrench/10.jpg;NA;87123;NA;130;image-keyboard-response;;NA;japanese
132;18;condition1;S_M;S;R;;;;0.0-6.0-3.29;d;589;3;M;Press S if the two images were the same;NA;NA;NA;NA;;;NA;japanese
133;18;condition1;_;;;;;;0.0-6.0-0.30;;NA;0;;img2/Mfrench/13.jpg;NA;87923;NA;132;image-keyboard-response;;NA;japanese
134;18;condition1;_;;;;;;0.0-6.0-1.30;;NA;1;;+;NA;88232;NA;133;html-keyboard-response;;NA;japanese
135;18;condition1;_;;;;;;0.0-6.0-2.30;;NA;2;;img2/Mfrench/11.jpg;NA;88450;NA;134;image-keyboard-response;;NA;japanese
136;18;condition1;D_M;D;R;;;;0.0-6.0-3.30;d;1035;3;M;Press S if the two images were the same;NA;NA;NA;NA;;;NA;japanese
137;18;condition1;_;;;;;;0.0-6.0-0.31;;NA;0;;img2/tools/3.jpg;NA;89693;NA;136;image-keyboard-response;;NA;japanese
138;18;condition1;_;;;;;;0.0-6.0-1.31;;NA;1;;+;NA;89999;NA;137;html-keyboard-response;;NA;japanese
139;18;condition1;_;;;;;;0.0-6.0-2.31;;NA;2;;img2/tools/13.jpg;NA;90214;NA;138;image-keyboard-response;;NA;japanese
140;18;condition1;D_T;D;O;;;;0.0-6.0-3.31;d;511;3;T;Press S if the two images were the same;NA;NA;NA;NA;;;NA;japanese
141;18;condition1;_;;;;;;0.0-6.0-0.32;;NA;0;;img2/tools/13.jpg;NA;90938;NA;140;image-keyboard-response;;NA;japanese
142;18;condition1;_;;;;;;0.0-6.0-1.32;;NA;1;;+;NA;91247;NA;141;html-keyboard-response;;NA;japanese
143;18;condition1;_;;;;;;0.0-6.0-2.32;;NA;2;;img2/tools/13.jpg;NA;91462;NA;142;image-keyboard-response;;NA;japanese
144;18;condition1;S_T;S;O;;;;0.0-6.0-3.32;s;447;3;T;Press S if the two images were the same;NA;NA;NA;NA;;;NA;japanese
145;18;condition1;_;;;;;;0.0-6.0-0.33;;NA;0;;img2/faces/1.jpg;NA;92128;NA;144;image-keyboard-response;;NA;japanese
146;18;condition1;_;;;;;;0.0-6.0-1.33;;NA;1;;+;NA;92450;NA;145;html-keyboard-response;;NA;japanese
147;18;condition1;_;;;;;;0.0-6.0-2.33;;NA;2;;img2/faces/1.jpg;NA;92666;NA;146;image-keyboard-response;;NA;japanese
148;18;condition1;S_T;S;H;;;;0.0-6.0-3.33;s;285;3;T;Press S if the two images were the same;NA;NA;NA;NA;;;NA;japanese
149;18;condition1;_;;;;;;0.0-6.0-0.34;;NA;0;;img2/jap/4.jpg;NA;93170;NA;148;image-keyboard-response;;NA;japanese
150;18;condition1;_;;;;;;0.0-6.0-1.34;;NA;1;;+;NA;93480;NA;149;html-keyboard-response;;NA;japanese
151;18;condition1;_;;;;;;0.0-6.0-2.34;;NA;2;;img2/jap/4.jpg;NA;93696;NA;150;image-keyboard-response;;NA;japanese
152;18;condition1;S_T;S;J;;;;0.0-6.0-3.34;s;381;3;T;Press S if the two images were the same;NA;NA;NA;NA;;;NA;japanese
153;18;condition1;_;;;;;;0.0-6.0-0.35;;NA;0;;img2/faces/10.jpg;NA;94293;NA;152;image-keyboard-response;;NA;japanese
154;18;condition1;_;;;;;;0.0-6.0-1.35;;NA;1;;+;NA;94601;NA;153;html-keyboard-response;;NA;japanese
155;18;condition1;_;;;;;;0.0-6.0-2.35;;NA;2;;img2/Mfaces/10.jpg;NA;94817;NA;154;image-keyboard-response;;NA;japanese
156;18;condition1;S_M;S;H;;;;0.0-6.0-3.35;d;388;3;M;Press S if the two images were the same;NA;NA;NA;NA;;;NA;japanese
157;18;condition1;_;;;;;;0.0-6.0-0.36;;NA;0;;img2/tools/5.jpg;NA;95419;NA;156;image-keyboard-response;;NA;japanese
158;18;condition1;_;;;;;;0.0-6.0-1.36;;NA;1;;+;NA;95725;NA;157;html-keyboard-response;;NA;japanese
159;18;condition1;_;;;;;;0.0-6.0-2.36;;NA;2;;img2/Mtools/5.jpg;NA;95941;NA;158;image-keyboard-response;;NA;japanese
160;18;condition1;S_M;S;O;;;;0.0-6.0-3.36;d;504;3;M;Press S if the two images were the same;NA;NA;NA;NA;;;NA;japanese
161;18;condition1;_;;;;;;0.0-6.0-0.37;;NA;0;;img2/faces/2.jpg;NA;96666;NA;160;image-keyboard-response;;NA;japanese
162;18;condition1;_;;;;;;0.0-6.0-1.37;;NA;1;;+;NA;96973;NA;161;html-keyboard-response;;NA;japanese
163;18;condition1;_;;;;;;0.0-6.0-2.37;;NA;2;;img2/Mfaces/2.jpg;NA;97188;NA;162;image-keyboard-response;;NA;japanese
164;18;condition1;S_M;S;H;;;;0.0-6.0-3.37;d;505;3;M;Press S if the two images were the same;NA;NA;NA;NA;;;NA;japanese
165;18;condition1;_;;;;;;0.0-6.0-0.38;;NA;0;;img2/faces/2.jpg;NA;97914;NA;164;image-keyboard-response;;NA;japanese
166;18;condition1;_;;;;;;0.0-6.0-1.38;;NA;1;;+;NA;98223;NA;165;html-keyboard-response;;NA;japanese
167;18;condition1;_;;;;;;0.0-6.0-2.38;;NA;2;;img2/faces/2.jpg;NA;98439;NA;166;image-keyboard-response;;NA;japanese
168;18;condition1;S_T;S;H;;;;0.0-6.0-3.38;s;384;3;T;Press S if the two images were the same;NA;NA;NA;NA;;;NA;japanese
169;18;condition1;_;;;;;;0.0-6.0-0.39;;NA;0;;img2/tools/8.jpg;NA;99030;NA;168;image-keyboard-response;;NA;japanese
170;18;condition1;_;;;;;;0.0-6.0-1.39;;NA;1;;+;NA;99336;NA;169;html-keyboard-response;;NA;japanese
171;18;condition1;_;;;;;;0.0-6.0-2.39;;NA;2;;img2/Mtools/8.jpg;NA;99554;NA;170;image-keyboard-response;;NA;japanese
172;18;condition1;S_M;S;O;;;;0.0-6.0-3.39;d;499;3;M;Press S if the two images were the same;NA;NA;NA;NA;;;NA;japanese
173;18;condition1;_;;;;;;0.0-6.0-0.40;;NA;0;;img2/french/7.jpg;NA;100272;NA;172;image-keyboard-response;;NA;japanese
174;18;condition1;_;;;;;;0.0-6.0-1.40;;NA;1;;+;NA;100594;NA;173;html-keyboard-response;;NA;japanese
175;18;condition1;_;;;;;;0.0-6.0-2.40;;NA;2;;img2/french/13.jpg;NA;100809;NA;174;image-keyboard-response;;NA;japanese
176;18;condition1;D_T;D;R;;;;0.0-6.0-3.40;d;500;3;T;Press S if the two images were the same;NA;NA;NA;NA;;;NA;japanese
177;18;condition1;_;;;;;;0.0-6.0-0.41;;NA;0;;img2/Mtools/13.jpg;NA;101522;NA;176;image-keyboard-response;;NA;japanese
178;18;condition1;_;;;;;;0.0-6.0-1.41;;NA;1;;+;NA;101829;NA;177;html-keyboard-response;;NA;japanese
179;18;condition1;_;;;;;;0.0-6.0-2.41;;NA;2;;img2/Mtools/11.jpg;NA;102044;NA;178;image-keyboard-response;;NA;japanese
180;18;condition1;D_M;D;O;;;;0.0-6.0-3.41;d;537;3;M;Press S if the two images were the same;NA;NA;NA;NA;;;NA;japanese
181;18;condition1;_;;;;;;0.0-6.0-0.42;;NA;0;;img2/Mfalse/10.jpg;NA;102799;NA;180;image-keyboard-response;;NA;japanese
182;18;condition1;_;;;;;;0.0-6.0-1.42;;NA;1;;+;NA;103120;NA;181;html-keyboard-response;;NA;japanese
183;18;condition1;_;;;;;;0.0-6.0-2.42;;NA;2;;img2/Mfalse/12.jpg;NA;103334;NA;182;image-keyboard-response;;NA;japanese
184;18;condition1;D_M;D;M;;;;0.0-6.0-3.42;d;419;3;M;Press S if the two images were the same;NA;NA;NA;NA;;;NA;japanese
185;18;condition1;_;;;;;;0.0-6.0-0.43;;NA;0;;img2/jap/11.jpg;NA;103964;NA;184;image-keyboard-response;;NA;japanese
186;18;condition1;_;;;;;;0.0-6.0-1.43;;NA;1;;+;NA;104270;NA;185;html-keyboard-response;;NA;japanese
187;18;condition1;_;;;;;;0.0-6.0-2.43;;NA;2;;img2/jap/11.jpg;NA;104484;NA;186;image-keyboard-response;;NA;japanese
188;18;condition1;S_T;S;J;;;;0.0-6.0-3.43;s;337;3;T;Press S if the two images were the same;NA;NA;NA;NA;;;NA;japanese
189;18;condition1;_;;;;;;0.0-6.0-0.44;;NA;0;;img2/french/3.jpg;NA;105035;NA;188;image-keyboard-response;;NA;japanese
190;18;condition1;_;;;;;;0.0-6.0-1.44;;NA;1;;+;NA;105342;NA;189;html-keyboard-response;;NA;japanese
191;18;condition1;_;;;;;;0.0-6.0-2.44;;NA;2;;img2/french/3.jpg;NA;105557;NA;190;image-keyboard-response;;NA;japanese
192;18;condition1;S_T;S;R;;;;0.0-6.0-3.44;s;424;3;T;Press S if the two images were the same;NA;NA;NA;NA;;;NA;japanese
193;18;condition1;_;;;;;;0.0-6.0-0.45;;NA;0;;img2/jap/2.jpg;NA;106190;NA;192;image-keyboard-response;;NA;japanese
194;18;condition1;_;;;;;;0.0-6.0-1.45;;NA;1;;+;NA;106500;NA;193;html-keyboard-response;;NA;japanese
195;18;condition1;_;;;;;;0.0-6.0-2.45;;NA;2;;img2/Mjap/2.jpg;NA;106717;NA;194;image-keyboard-response;;NA;japanese
196;18;condition1;S_M;S;J;;;;0.0-6.0-3.45;d;511;3;M;Press S if the two images were the same;NA;NA;NA;NA;;;NA;japanese
197;18;condition1;_;;;;;;0.0-6.0-0.46;;NA;0;;img2/Mfalse/2.jpg;NA;107444;NA;196;image-keyboard-response;;NA;japanese
198;18;condition1;_;;;;;;0.0-6.0-1.46;;NA;1;;+;NA;107749;NA;197;html-keyboard-response;;NA;japanese
199;18;condition1;_;;;;;;0.0-6.0-2.46;;NA;2;;img2/Mfalse/9.jpg;NA;107966;NA;198;image-keyboard-response;;NA;japanese
200;18;condition1;D_M;D;M;;;;0.0-6.0-3.46;d;592;3;M;Press S if the two images were the same;NA;NA;NA;NA;;;NA;japanese
201;18;condition1;_;;;;;;0.0-6.0-0.47;;NA;0;;img2/false/13.jpg;NA;108769;NA;200;image-keyboard-response;;NA;japanese
202;18;condition1;_;;;;;;0.0-6.0-1.47;;NA;1;;+;NA;109075;NA;201;html-keyboard-response;;NA;japanese
203;18;condition1;_;;;;;;0.0-6.0-2.47;;NA;2;;img2/Mfalse/13.jpg;NA;109290;NA;202;image-keyboard-response;;NA;japanese
204;18;condition1;S_M;S;M;;;;0.0-6.0-3.47;d;485;3;M;Press S if the two images were the same;NA;NA;NA;NA;;;NA;japanese
205;18;condition1;_;;;;;;0.0-6.0-0.48;;NA;0;;img2/tools/14.jpg;NA;109983;NA;204;image-keyboard-response;;NA;japanese
206;18;condition1;_;;;;;;0.0-6.0-1.48;;NA;1;;+;NA;110291;NA;205;html-keyboard-response;;NA;japanese
207;18;condition1;_;;;;;;0.0-6.0-2.48;;NA;2;;img2/tools/14.jpg;NA;110505;NA;206;image-keyboard-response;;NA;japanese
208;18;condition1;S_T;S;O;;;;0.0-6.0-3.48;s;228;3;T;Press S if the two images were the same;NA;NA;NA;NA;;;NA;japanese
209;18;condition1;_;;;;;;0.0-6.0-0.49;;NA;0;;img2/french/11.jpg;NA;110946;NA;208;image-keyboard-response;;NA;japanese
210;18;condition1;_;;;;;;0.0-6.0-1.49;;NA;1;;+;NA;111267;NA;209;html-keyboard-response;;NA;japanese
211;18;condition1;_;;;;;;0.0-6.0-2.49;;NA;2;;img2/Mfrench/11.jpg;NA;111481;NA;210;image-keyboard-response;;NA;japanese
212;18;condition1;S_M;S;R;;;;0.0-6.0-3.49;d;357;3;M;Press S if the two images were the same;NA;NA;NA;NA;;;NA;japanese
213;18;condition1;_;;;;;;0.0-6.0-0.50;;NA;0;;img2/french/7.jpg;NA;112050;NA;212;image-keyboard-response;;NA;japanese
214;18;condition1;_;;;;;;0.0-6.0-1.50;;NA;1;;+;NA;112357;NA;213;html-keyboard-response;;NA;japanese
215;18;condition1;_;;;;;;0.0-6.0-2.50;;NA;2;;img2/Mfrench/7.jpg;NA;112571;NA;214;image-keyboard-response;;NA;japanese
216;18;condition1;S_M;S;R;;;;0.0-6.0-3.50;d;577;3;M;Press S if the two images were the same;NA;NA;NA;NA;;;NA;japanese
217;18;condition1;_;;;;;;0.0-6.0-0.51;;NA;0;;img2/faces/9.jpg;NA;113357;NA;216;image-keyboard-response;;NA;japanese
218;18;condition1;_;;;;;;0.0-6.0-1.51;;NA;1;;+;NA;113665;NA;217;html-keyboard-response;;NA;japanese
219;18;condition1;_;;;;;;0.0-6.0-2.51;;NA;2;;img2/faces/9.jpg;NA;113884;NA;218;image-keyboard-response;;NA;japanese
220;18;condition1;S_T;S;H;;;;0.0-6.0-3.51;s;441;3;T;Press S if the two images were the same;NA;NA;NA;NA;;;NA;japanese
221;18;condition1;_;;;;;;0.0-6.0-0.52;;NA;0;;img2/tools/7.jpg;NA;114544;NA;220;image-keyboard-response;;NA;japanese
222;18;condition1;_;;;;;;0.0-6.0-1.52;;NA;1;;+;NA;114854;NA;221;html-keyboard-response;;NA;japanese
223;18;condition1;_;;;;;;0.0-6.0-2.52;;NA;2;;img2/tools/13.jpg;NA;115068;NA;222;image-keyboard-response;;NA;japanese
224;18;condition1;D_T;D;O;;;;0.0-6.0-3.52;d;442;3;T;Press S if the two images were the same;NA;NA;NA;NA;;;NA;japanese
225;18;condition1;_;;;;;;0.0-6.0-0.53;;NA;0;;img2/faces/6.jpg;NA;115719;NA;224;image-keyboard-response;;NA;japanese
226;18;condition1;_;;;;;;0.0-6.0-1.53;;NA;1;;+;NA;116043;NA;225;html-keyboard-response;;NA;japanese
227;18;condition1;_;;;;;;0.0-6.0-2.53;;NA;2;;img2/Mfaces/6.jpg;NA;116260;NA;226;image-keyboard-response;;NA;japanese
228;18;condition1;S_M;S;H;;;;0.0-6.0-3.53;d;450;3;M;Press S if the two images were the same;NA;NA;NA;NA;;;NA;japanese
229;18;condition1;_;;;;;;0.0-6.0-0.54;;NA;0;;img2/jap/4.jpg;NA;116923;NA;228;image-keyboard-response;;NA;japanese
230;18;condition1;_;;;;;;0.0-6.0-1.54;;NA;1;;+;NA;117230;NA;229;html-keyboard-response;;NA;japanese
231;18;condition1;_;;;;;;0.0-6.0-2.54;;NA;2;;img2/jap/12.jpg;NA;117445;NA;230;image-keyboard-response;;NA;japanese
232;18;condition1;D_T;D;J;;;;0.0-6.0-3.54;d;584;3;T;Press S if the two images were the same;NA;NA;NA;NA;;;NA;japanese
233;18;condition1;_;;;;;;0.0-6.0-0.55;;NA;0;;img2/false/8.jpg;NA;118249;NA;232;image-keyboard-response;;NA;japanese
234;18;condition1;_;;;;;;0.0-6.0-1.55;;NA;1;;+;NA;118557;NA;233;html-keyboard-response;;NA;japanese
235;18;condition1;_;;;;;;0.0-6.0-2.55;;NA;2;;img2/Mfalse/8.jpg;NA;118772;NA;234;image-keyboard-response;;NA;japanese
236;18;condition1;S_M;S;M;;;;0.0-6.0-3.55;d;401;3;M;Press S if the two images were the same;NA;NA;NA;NA;;;NA;japanese
237;18;condition1;_;;;;;;0.0-6.0-0.56;;NA;0;;img2/jap/7.jpg;NA;119391;NA;236;image-keyboard-response;;NA;japanese
238;18;condition1;_;;;;;;0.0-6.0-1.56;;NA;1;;+;NA;119711;NA;237;html-keyboard-response;;NA;japanese
239;18;condition1;_;;;;;;0.0-6.0-2.56;;NA;2;;img2/jap/7.jpg;NA;119929;NA;238;image-keyboard-response;;NA;japanese
240;18;condition1;S_T;S;J;;;;0.0-6.0-3.56;s;365;3;T;Press S if the two images were the same;NA;NA;NA;NA;;;NA;japanese
241;18;condition1;_;;;;;;0.0-6.0-0.57;;NA;0;;img2/jap/13.jpg;NA;120511;NA;240;image-keyboard-response;;NA;japanese
242;18;condition1;_;;;;;;0.0-6.0-1.57;;NA;1;;+;NA;120818;NA;241;html-keyboard-response;;NA;japanese
243;18;condition1;_;;;;;;0.0-6.0-2.57;;NA;2;;img2/Mjap/13.jpg;NA;121031;NA;242;image-keyboard-response;;NA;japanese
244;18;condition1;S_M;S;J;;;;0.0-6.0-3.57;s;615;3;M;Press S if the two images were the same;NA;NA;NA;NA;;;NA;japanese
245;18;condition1;_;;;;;;0.0-6.0-0.58;;NA;0;;img2/Mfaces/13.jpg;NA;121863;NA;244;image-keyboard-response;;NA;japanese
246;18;condition1;_;;;;;;0.0-6.0-1.58;;NA;1;;+;NA;122168;NA;245;html-keyboard-response;;NA;japanese
247;18;condition1;_;;;;;;0.0-6.0-2.58;;NA;2;;img2/Mfaces/11.jpg;NA;122371;NA;246;image-keyboard-response;;NA;japanese
248;18;condition1;D_M;D;H;;;;0.0-6.0-3.58;d;460;3;M;Press S if the two images were the same;NA;NA;NA;NA;;;NA;japanese
249;18;condition1;_;;;;;;0.0-6.0-0.59;;NA;0;;img2/Mtools/12.jpg;NA;123047;NA;248;image-keyboard-response;;NA;japanese
250;18;condition1;_;;;;;;0.0-6.0-1.59;;NA;1;;+;NA;123370;NA;249;html-keyboard-response;;NA;japanese
251;18;condition1;_;;;;;;0.0-6.0-2.59;;NA;2;;img2/Mtools/8.jpg;NA;123571;NA;250;image-keyboard-response;;NA;japanese
252;18;condition1;D_M;D;O;;;;0.0-6.0-3.59;d;603;3;M;Press S if the two images were the same;NA;NA;NA;NA;;;NA;japanese
253;18;condition1;_;;;;;;0.0-6.0-0.60;;NA;0;;img2/french/14.jpg;NA;124386;NA;252;image-keyboard-response;;NA;japanese
254;18;condition1;_;;;;;;0.0-6.0-1.60;;NA;1;;+;NA;124696;NA;253;html-keyboard-response;;NA;japanese
255;18;condition1;_;;;;;;0.0-6.0-2.60;;NA;2;;img2/Mfrench/14.jpg;NA;124909;NA;254;image-keyboard-response;;NA;japanese
256;18;condition1;S_M;S;R;;;;0.0-6.0-3.60;d;361;3;M;Press S if the two images were the same;NA;NA;NA;NA;;;NA;japanese
257;18;condition1;_;;;;;;0.0-6.0-0.61;;NA;0;;img2/Mtools/5.jpg;NA;125489;NA;256;image-keyboard-response;;NA;japanese
258;18;condition1;_;;;;;;0.0-6.0-1.61;;NA;1;;+;NA;125809;NA;257;html-keyboard-response;;NA;japanese
259;18;condition1;_;;;;;;0.0-6.0-2.61;;NA;2;;img2/Mtools/12.jpg;NA;126022;NA;258;image-keyboard-response;;NA;japanese
260;18;condition1;D_M;D;O;;;;0.0-6.0-3.61;d;359;3;M;Press S if the two images were the same;NA;NA;NA;NA;;;NA;japanese
261;18;condition1;_;;;;;;0.0-6.0-0.62;;NA;0;;img2/french/9.jpg;NA;126592;NA;260;image-keyboard-response;;NA;japanese
262;18;condition1;_;;;;;;0.0-6.0-1.62;;NA;1;;+;NA;126899;NA;261;html-keyboard-response;;NA;japanese
263;18;condition1;_;;;;;;0.0-6.0-2.62;;NA;2;;img2/french/9.jpg;NA;127117;NA;262;image-keyboard-response;;NA;japanese
264;18;condition1;S_T;S;R;;;;0.0-6.0-3.62;s;281;3;T;Press S if the two images were the same;NA;NA;NA;NA;;;NA;japanese
265;18;condition1;_;;;;;;0.0-6.0-0.63;;NA;0;;img2/Mfalse/13.jpg;NA;127606;NA;264;image-keyboard-response;;NA;japanese
266;18;condition1;_;;;;;;0.0-6.0-1.63;;NA;1;;+;NA;127911;NA;265;html-keyboard-response;;NA;japanese
267;18;condition1;_;;;;;;0.0-6.0-2.63;;NA;2;;img2/Mfalse/11.jpg;NA;128129;NA;266;image-keyboard-response;;NA;japanese
268;18;condition1;D_M;D;M;;;;0.0-6.0-3.63;d;990;3;M;Press S if the two images were the same;NA;NA;NA;NA;;;NA;japanese
269;18;condition1;_;;;;;;0.0-6.0-0.64;;NA;0;;img2/false/7.jpg;NA;129331;NA;268;image-keyboard-response;;NA;japanese
270;18;condition1;_;;;;;;0.0-6.0-1.64;;NA;1;;+;NA;129641;NA;269;html-keyboard-response;;NA;japanese
271;18;condition1;_;;;;;;0.0-6.0-2.64;;NA;2;;img2/false/7.jpg;NA;129855;NA;270;image-keyboard-response;;NA;japanese
272;18;condition1;S_T;S;M;;;;0.0-6.0-3.64;s;567;3;T;Press S if the two images were the same;NA;NA;NA;NA;;;NA;japanese
273;18;condition1;_;;;;;;0.0-6.0-0.65;;NA;0;;img2/faces/11.jpg;NA;130631;NA;272;image-keyboard-response;;NA;japanese
274;18;condition1;_;;;;;;0.0-6.0-1.65;;NA;1;;+;NA;130942;NA;273;html-keyboard-response;;NA;japanese
275;18;condition1;_;;;;;;0.0-6.0-2.65;;NA;2;;img2/Mfaces/11.jpg;NA;131158;NA;274;image-keyboard-response;;NA;japanese
276;18;condition1;S_M;S;H;;;;0.0-6.0-3.65;s;1007;3;M;Press S if the two images were the same;NA;NA;NA;NA;;;NA;japanese
277;18;condition1;_;;;;;;0.0-6.0-0.66;;NA;0;;img2/tools/6.jpg;NA;132372;NA;276;image-keyboard-response;;NA;japanese
278;18;condition1;_;;;;;;0.0-6.0-1.66;;NA;1;;+;NA;132679;NA;277;html-keyboard-response;;NA;japanese
279;18;condition1;_;;;;;;0.0-6.0-2.66;;NA;2;;img2/Mtools/6.jpg;NA;132894;NA;278;image-keyboard-response;;NA;japanese
280;18;condition1;S_M;S;O;;;;0.0-6.0-3.66;d;520;3;M;Press S if the two images were the same;NA;NA;NA;NA;;;NA;japanese
281;18;condition1;_;;;;;;0.0-6.0-0.67;;NA;0;;img2/faces/7.jpg;NA;133631;NA;280;image-keyboard-response;;NA;japanese
282;18;condition1;_;;;;;;0.0-6.0-1.67;;NA;1;;+;NA;133939;NA;281;html-keyboard-response;;NA;japanese
283;18;condition1;_;;;;;;0.0-6.0-2.67;;NA;2;;img2/Mfaces/7.jpg;NA;134157;NA;282;image-keyboard-response;;NA;japanese
284;18;condition1;S_M;S;H;;;;0.0-6.0-3.67;d;889;3;M;Press S if the two images were the same;NA;NA;NA;NA;;;NA;japanese
285;18;condition1;_;;;;;;0.0-6.0-0.68;;NA;0;;img2/jap/3.jpg;NA;135262;NA;284;image-keyboard-response;;NA;japanese
286;18;condition1;_;;;;;;0.0-6.0-1.68;;NA;1;;+;NA;135568;NA;285;html-keyboard-response;;NA;japanese
287;18;condition1;_;;;;;;0.0-6.0-2.68;;NA;2;;img2/jap/3.jpg;NA;135769;NA;286;image-keyboard-response;;NA;japanese
288;18;condition1;S_T;S;J;;;;0.0-6.0-3.68;s;620;3;T;Press S if the two images were the same;NA;NA;NA;NA;;;NA;japanese
289;18;condition1;_;;;;;;0.0-6.0-0.69;;NA;0;;img2/false/9.jpg;NA;136603;NA;288;image-keyboard-response;;NA;japanese
290;18;condition1;_;;;;;;0.0-6.0-1.69;;NA;1;;+;NA;136913;NA;289;html-keyboard-response;;NA;japanese
291;18;condition1;_;;;;;;0.0-6.0-2.69;;NA;2;;img2/Mfalse/9.jpg;NA;137128;NA;290;image-keyboard-response;;NA;japanese
292;18;condition1;S_M;S;M;;;;0.0-6.0-3.69;s;1014;3;M;Press S if the two images were the same;NA;NA;NA;NA;;;NA;japanese
293;18;condition1;_;;;;;;0.0-6.0-0.70;;NA;0;;img2/false/7.jpg;NA;138356;NA;292;image-keyboard-response;;NA;japanese
294;18;condition1;_;;;;;;0.0-6.0-1.70;;NA;1;;+;NA;138665;NA;293;html-keyboard-response;;NA;japanese
295;18;condition1;_;;;;;;0.0-6.0-2.70;;NA;2;;img2/false/13.jpg;NA;138877;NA;294;image-keyboard-response;;NA;japanese
296;18;condition1;D_T;D;M;;;;0.0-6.0-3.70;d;456;3;T;Press S if the two images were the same;NA;NA;NA;NA;;;NA;japanese
297;18;condition1;_;;;;;;0.0-6.0-0.71;;NA;0;;img2/french/9.jpg;NA;139540;NA;296;image-keyboard-response;;NA;japanese
298;18;condition1;_;;;;;;0.0-6.0-1.71;;NA;1;;+;NA;139850;NA;297;html-keyboard-response;;NA;japanese
299;18;condition1;_;;;;;;0.0-6.0-2.71;;NA;2;;img2/french/12.jpg;NA;140062;NA;298;image-keyboard-response;;NA;japanese
300;18;condition1;D_T;D;R;;;;0.0-6.0-3.71;d;296;3;T;Press S if the two images were the same;NA;NA;NA;NA;;;NA;japanese
301;18;condition1;_;;;;;;0.0-6.0-0.72;;NA;0;;img2/jap/12.jpg;NA;140571;NA;300;image-keyboard-response;;NA;japanese
302;18;condition1;_;;;;;;0.0-6.0-1.72;;NA;1;;+;NA;140877;NA;301;html-keyboard-response;;NA;japanese
303;18;condition1;_;;;;;;0.0-6.0-2.72;;NA;2;;img2/jap/8.jpg;NA;141091;NA;302;image-keyboard-response;;NA;japanese
304;18;condition1;D_T;D;J;;;;0.0-6.0-3.72;d;451;3;T;Press S if the two images were the same;NA;NA;NA;NA;;;NA;japanese
305;18;condition1;_;;;;;;0.0-6.0-0.73;;NA;0;;img2/faces/7.jpg;NA;141763;NA;304;image-keyboard-response;;NA;japanese
306;18;condition1;_;;;;;;0.0-6.0-1.73;;NA;1;;+;NA;142083;NA;305;html-keyboard-response;;NA;japanese
307;18;condition1;_;;;;;;0.0-6.0-2.73;;NA;2;;img2/faces/7.jpg;NA;142298;NA;306;image-keyboard-response;;NA;japanese
308;18;condition1;S_T;S;H;;;;0.0-6.0-3.73;s;260;3;T;Press S if the two images were the same;NA;NA;NA;NA;;;NA;japanese
309;18;condition1;_;;;;;;0.0-6.0-0.74;;NA;0;;img2/faces/1.jpg;NA;142761;NA;308;image-keyboard-response;;NA;japanese
310;18;condition1;_;;;;;;0.0-6.0-1.74;;NA;1;;+;NA;143066;NA;309;html-keyboard-response;;NA;japanese
311;18;condition1;_;;;;;;0.0-6.0-2.74;;NA;2;;img2/faces/7.jpg;NA;143280;NA;310;image-keyboard-response;;NA;japanese
312;18;condition1;D_T;D;H;;;;0.0-6.0-3.74;d;415;3;T;Press S if the two images were the same;NA;NA;NA;NA;;;NA;japanese
313;18;condition1;_;;;;;;0.0-6.0-0.75;;NA;0;;img2/false/1.jpg;NA;143909;NA;312;image-keyboard-response;;NA;japanese
314;18;condition1;_;;;;;;0.0-6.0-1.75;;NA;1;;+;NA;144215;NA;313;html-keyboard-response;;NA;japanese
315;18;condition1;_;;;;;;0.0-6.0-2.75;;NA;2;;img2/false/7.jpg;NA;144430;NA;314;image-keyboard-response;;NA;japanese
316;18;condition1;D_T;D;M;;;;0.0-6.0-3.75;d;471;3;T;Press S if the two images were the same;NA;NA;NA;NA;;;NA;japanese
317;18;condition1;_;;;;;;0.0-6.0-0.76;;NA;0;;img2/Mjap/14.jpg;NA;145108;NA;316;image-keyboard-response;;NA;japanese
318;18;condition1;_;;;;;;0.0-6.0-1.76;;NA;1;;+;NA;145414;NA;317;html-keyboard-response;;NA;japanese
319;18;condition1;_;;;;;;0.0-6.0-2.76;;NA;2;;img2/Mjap/13.jpg;NA;145631;NA;318;image-keyboard-response;;NA;japanese
320;18;condition1;D_M;D;J;;;;0.0-6.0-3.76;d;463;3;M;Press S if the two images were the same;NA;NA;NA;NA;;;NA;japanese
321;18;condition1;_;;;;;;0.0-6.0-0.77;;NA;0;;img2/french/1.jpg;NA;146308;NA;320;image-keyboard-response;;NA;japanese
322;18;condition1;_;;;;;;0.0-6.0-1.77;;NA;1;;+;NA;146616;NA;321;html-keyboard-response;;NA;japanese
323;18;condition1;_;;;;;;0.0-6.0-2.77;;NA;2;;img2/Mfrench/1.jpg;NA;146835;NA;322;image-keyboard-response;;NA;japanese
324;18;condition1;S_M;S;R;;;;0.0-6.0-3.77;d;324;3;M;Press S if the two images were the same;NA;NA;NA;NA;;;NA;japanese
325;18;condition1;_;;;;;;0.0-6.0-0.78;;NA;0;;img2/Mfalse/4.jpg;NA;147369;NA;324;image-keyboard-response;;NA;japanese
326;18;condition1;_;;;;;;0.0-6.0-1.78;;NA;1;;+;NA;147679;NA;325;html-keyboard-response;;NA;japanese
327;18;condition1;_;;;;;;0.0-6.0-2.78;;NA;2;;img2/Mfalse/12.jpg;NA;147894;NA;326;image-keyboard-response;;NA;japanese
328;18;condition1;D_M;D;M;;;;0.0-6.0-3.78;d;503;3;M;Press S if the two images were the same;NA;NA;NA;NA;;;NA;japanese
329;18;condition1;_;;;;;;0.0-6.0-0.79;;NA;0;;img2/Mfalse/14.jpg;NA;148617;NA;328;image-keyboard-response;;NA;japanese
330;18;condition1;_;;;;;;0.0-6.0-1.79;;NA;1;;+;NA;148938;NA;329;html-keyboard-response;;NA;japanese
331;18;condition1;_;;;;;;0.0-6.0-2.79;;NA;2;;img2/Mfalse/13.jpg;NA;149154;NA;330;image-keyboard-response;;NA;japanese
332;18;condition1;D_M;D;M;;;;0.0-6.0-3.79;d;540;3;M;Press S if the two images were the same;NA;NA;NA;NA;;;NA;japanese
333;18;condition1;_;;;;;;0.0-6.0-0.80;;NA;0;;img2/tools/1.jpg;NA;149907;NA;332;image-keyboard-response;;NA;japanese
334;18;condition1;_;;;;;;0.0-6.0-1.80;;NA;1;;+;NA;150213;NA;333;html-keyboard-response;;NA;japanese
335;18;condition1;_;;;;;;0.0-6.0-2.80;;NA;2;;img2/Mtools/1.jpg;NA;150429;NA;334;image-keyboard-response;;NA;japanese
336;18;condition1;S_M;S;O;;;;0.0-6.0-3.80;d;530;3;M;Press S if the two images were the same;NA;NA;NA;NA;;;NA;japanese
337;18;condition1;_;;;;;;0.0-6.0-0.81;;NA;0;;img2/Mjap/3.jpg;NA;151169;NA;336;image-keyboard-response;;NA;japanese
338;18;condition1;_;;;;;;0.0-6.0-1.81;;NA;1;;+;NA;151479;NA;337;html-keyboard-response;;NA;japanese
339;18;condition1;_;;;;;;0.0-6.0-2.81;;NA;2;;img2/Mjap/13.jpg;NA;151692;NA;338;image-keyboard-response;;NA;japanese
340;18;condition1;D_M;D;J;;;;0.0-6.0-3.81;d;372;3;M;Press S if the two images were the same;NA;NA;NA;NA;;;NA;japanese
341;18;condition1;_;;;;;;0.0-6.0-0.82;;NA;0;;img2/false/13.jpg;NA;152278;NA;340;image-keyboard-response;;NA;japanese
342;18;condition1;_;;;;;;0.0-6.0-1.82;;NA;1;;+;NA;152586;NA;341;html-keyboard-response;;NA;japanese
343;18;condition1;_;;;;;;0.0-6.0-2.82;;NA;2;;img2/false/13.jpg;NA;152798;NA;342;image-keyboard-response;;NA;japanese
344;18;condition1;S_T;S;M;;;;0.0-6.0-3.82;d;520;3;T;Press S if the two images were the same;NA;NA;NA;NA;;;NA;japanese
345;18;condition1;_;;;;;;0.0-6.0-0.83;;NA;0;;img2/french/10.jpg;NA;153526;NA;344;image-keyboard-response;;NA;japanese
346;18;condition1;_;;;;;;0.0-6.0-1.83;;NA;1;;+;NA;153828;NA;345;html-keyboard-response;;NA;japanese
347;18;condition1;_;;;;;;0.0-6.0-2.83;;NA;2;;img2/french/12.jpg;NA;154043;NA;346;image-keyboard-response;;NA;japanese
348;18;condition1;D_T;D;R;;;;0.0-6.0-3.83;d;1046;3;T;Press S if the two images were the same;NA;NA;NA;NA;;;NA;japanese
349;18;condition1;_;;;;;;0.0-6.0-0.84;;NA;0;;img2/tools/13.jpg;NA;155300;NA;348;image-keyboard-response;;NA;japanese
350;18;condition1;_;;;;;;0.0-6.0-1.84;;NA;1;;+;NA;155610;NA;349;html-keyboard-response;;NA;japanese
351;18;condition1;_;;;;;;0.0-6.0-2.84;;NA;2;;img2/tools/11.jpg;NA;155828;NA;350;image-keyboard-response;;NA;japanese
352;18;condition1;D_T;D;O;;;;0.0-6.0-3.84;d;466;3;T;Press S if the two images were the same;NA;NA;NA;NA;;;NA;japanese
353;18;condition1;_;;;;;;0.0-6.0-0.85;;NA;0;;img2/jap/9.jpg;NA;156508;NA;352;image-keyboard-response;;NA;japanese
354;18;condition1;_;;;;;;0.0-6.0-1.85;;NA;1;;+;NA;156821;NA;353;html-keyboard-response;;NA;japanese
355;18;condition1;_;;;;;;0.0-6.0-2.85;;NA;2;;img2/Mjap/9.jpg;NA;157036;NA;354;image-keyboard-response;;NA;japanese
356;18;condition1;S_M;S;J;;;;0.0-6.0-3.85;s;850;3;M;Press S if the two images were the same;NA;NA;NA;NA;;;NA;japanese
357;18;condition1;_;;;;;;0.0-6.0-0.86;;NA;0;;img2/Mfrench/11.jpg;NA;158108;NA;356;image-keyboard-response;;NA;japanese
358;18;condition1;_;;;;;;0.0-6.0-1.86;;NA;1;;+;NA;158421;NA;357;html-keyboard-response;;NA;japanese
359;18;condition1;_;;;;;;0.0-6.0-2.86;;NA;2;;img2/Mfrench/6.jpg;NA;158636;NA;358;image-keyboard-response;;NA;japanese
360;18;condition1;D_M;D;R;;;;0.0-6.0-3.86;d;497;3;M;Press S if the two images were the same;NA;NA;NA;NA;;;NA;japanese
361;18;condition1;_;;;;;;0.0-6.0-0.87;;NA;0;;img2/faces/4.jpg;NA;159343;NA;360;image-keyboard-response;;NA;japanese
362;18;condition1;_;;;;;;0.0-6.0-1.87;;NA;1;;+;NA;159650;NA;361;html-keyboard-response;;NA;japanese
363;18;condition1;_;;;;;;0.0-6.0-2.87;;NA;2;;img2/faces/12.jpg;NA;159865;NA;362;image-keyboard-response;;NA;japanese
364;18;condition1;D_T;D;H;;;;0.0-6.0-3.87;d;1149;3;T;Press S if the two images were the same;NA;NA;NA;NA;;;NA;japanese
365;18;condition1;_;;;;;;0.0-6.0-0.88;;NA;0;;img2/jap/11.jpg;NA;161224;NA;364;image-keyboard-response;;NA;japanese
366;18;condition1;_;;;;;;0.0-6.0-1.88;;NA;1;;+;NA;161530;NA;365;html-keyboard-response;;NA;japanese
367;18;condition1;_;;;;;;0.0-6.0-2.88;;NA;2;;img2/Mjap/11.jpg;NA;161746;NA;366;image-keyboard-response;;NA;japanese
368;18;condition1;S_M;S;J;;;;0.0-6.0-3.88;s;399;3;M;Press S if the two images were the same;NA;NA;NA;NA;;;NA;japanese
369;18;condition1;_;;;;;;0.0-6.0-0.89;;NA;0;;img2/Mtools/10.jpg;NA;162363;NA;368;image-keyboard-response;;NA;japanese
370;18;condition1;_;;;;;;0.0-6.0-1.89;;NA;1;;+;NA;162669;NA;369;html-keyboard-response;;NA;japanese
371;18;condition1;_;;;;;;0.0-6.0-2.89;;NA;2;;img2/Mtools/12.jpg;NA;162886;NA;370;image-keyboard-response;;NA;japanese
372;18;condition1;D_M;D;O;;;;0.0-6.0-3.89;d;1312;3;M;Press S if the two images were the same;NA;NA;NA;NA;;;NA;japanese
373;18;condition1;_;;;;;;0.0-6.0-0.90;;NA;0;;img2/Mfrench/6.jpg;NA;164405;NA;372;image-keyboard-response;;NA;japanese
374;18;condition1;_;;;;;;0.0-6.0-1.90;;NA;1;;+;NA;164713;NA;373;html-keyboard-response;;NA;japanese
375;18;condition1;_;;;;;;0.0-6.0-2.90;;NA;2;;img2/Mfrench/14.jpg;NA;164928;NA;374;image-keyboard-response;;NA;japanese
376;18;condition1;D_M;D;R;;;;0.0-6.0-3.90;d;511;3;M;Press S if the two images were the same;NA;NA;NA;NA;;;NA;japanese
377;18;condition1;_;;;;;;0.0-6.0-0.91;;NA;0;;img2/Mjap/1.jpg;NA;165656;NA;376;image-keyboard-response;;NA;japanese
378;18;condition1;_;;;;;;0.0-6.0-1.91;;NA;1;;+;NA;165965;NA;377;html-keyboard-response;;NA;japanese
379;18;condition1;_;;;;;;0.0-6.0-2.91;;NA;2;;img2/Mjap/7.jpg;NA;166166;NA;378;image-keyboard-response;;NA;japanese
380;18;condition1;D_M;D;J;;;;0.0-6.0-3.91;d;560;3;M;Press S if the two images were the same;NA;NA;NA;NA;;;NA;japanese
381;18;condition1;_;;;;;;0.0-6.0-0.92;;NA;0;;img2/tools/7.jpg;NA;166939;NA;380;image-keyboard-response;;NA;japanese
382;18;condition1;_;;;;;;0.0-6.0-1.92;;NA;1;;+;NA;167246;NA;381;html-keyboard-response;;NA;japanese
383;18;condition1;_;;;;;;0.0-6.0-2.92;;NA;2;;img2/tools/7.jpg;NA;167462;NA;382;image-keyboard-response;;NA;japanese
384;18;condition1;S_T;S;O;;;;0.0-6.0-3.92;s;455;3;T;Press S if the two images were the same;NA;NA;NA;NA;;;NA;japanese
385;18;condition1;_;;;;;;0.0-6.0-0.93;;NA;0;;img2/faces/3.jpg;NA;168137;NA;384;image-keyboard-response;;NA;japanese
386;18;condition1;_;;;;;;0.0-6.0-1.93;;NA;1;;+;NA;168445;NA;385;html-keyboard-response;;NA;japanese
387;18;condition1;_;;;;;;0.0-6.0-2.93;;NA;2;;img2/faces/13.jpg;NA;168660;NA;386;image-keyboard-response;;NA;japanese
388;18;condition1;D_T;D;H;;;;0.0-6.0-3.93;d;418;3;T;Press S if the two images were the same;NA;NA;NA;NA;;;NA;japanese
389;18;condition1;_;;;;;;0.0-6.0-0.94;;NA;0;;img2/faces/3.jpg;NA;169290;NA;388;image-keyboard-response;;NA;japanese
390;18;condition1;_;;;;;;0.0-6.0-1.94;;NA;1;;+;NA;169598;NA;389;html-keyboard-response;;NA;japanese
391;18;condition1;_;;;;;;0.0-6.0-2.94;;NA;2;;img2/faces/3.jpg;NA;169812;NA;390;image-keyboard-response;;NA;japanese
392;18;condition1;S_T;S;H;;;;0.0-6.0-3.94;s;378;3;T;Press S if the two images were the same;NA;NA;NA;NA;;;NA;japanese
393;18;condition1;_;;;;;;0.0-6.0-0.95;;NA;0;;img2/false/12.jpg;NA;170409;NA;392;image-keyboard-response;;NA;japanese
394;18;condition1;_;;;;;;0.0-6.0-1.95;;NA;1;;+;NA;170719;NA;393;html-keyboard-response;;NA;japanese
395;18;condition1;_;;;;;;0.0-6.0-2.95;;NA;2;;img2/Mfalse/12.jpg;NA;170936;NA;394;image-keyboard-response;;NA;japanese
396;18;condition1;S_M;S;M;;;;0.0-6.0-3.95;d;454;3;M;Press S if the two images were the same;NA;NA;NA;NA;;;NA;japanese
397;18;condition1;_;;;;;;0.0-6.0-0.96;;NA;0;;img2/Mjap/11.jpg;NA;171609;NA;396;image-keyboard-response;;NA;japanese
398;18;condition1;_;;;;;;0.0-6.0-1.96;;NA;1;;+;NA;171917;NA;397;html-keyboard-response;;NA;japanese
399;18;condition1;_;;;;;;0.0-6.0-2.96;;NA;2;;img2/Mjap/6.jpg;NA;172132;NA;398;image-keyboard-response;;NA;japanese
400;18;condition1;D_M;D;J;;;;0.0-6.0-3.96;d;461;3;M;Press S if the two images were the same;NA;NA;NA;NA;;;NA;japanese
401;18;condition1;_;;;;;;0.0-6.0-0.97;;NA;0;;img2/faces/7.jpg;NA;172796;NA;400;image-keyboard-response;;NA;japanese
402;18;condition1;_;;;;;;0.0-6.0-1.97;;NA;1;;+;NA;173106;NA;401;html-keyboard-response;;NA;japanese
403;18;condition1;_;;;;;;0.0-6.0-2.97;;NA;2;;img2/faces/13.jpg;NA;173322;NA;402;image-keyboard-response;;NA;japanese
404;18;condition1;D_T;D;H;;;;0.0-6.0-3.97;d;516;3;T;Press S if the two images were the same;NA;NA;NA;NA;;;NA;japanese
405;18;condition1;_;;;;;;0.0-6.0-0.98;;NA;0;;img2/false/13.jpg;NA;174047;NA;404;image-keyboard-response;;NA;japanese
406;18;condition1;_;;;;;;0.0-6.0-1.98;;NA;1;;+;NA;174353;NA;405;html-keyboard-response;;NA;japanese
407;18;condition1;_;;;;;;0.0-6.0-2.98;;NA;2;;img2/false/11.jpg;NA;174569;NA;406;image-keyboard-response;;NA;japanese
408;18;condition1;D_T;D;M;;;;0.0-6.0-3.98;d;452;3;T;Press S if the two images were the same;NA;NA;NA;NA;;;NA;japanese
409;18;condition1;_;;;;;;0.0-6.0-0.99;;NA;0;;img2/french/4.jpg;NA;175229;NA;408;image-keyboard-response;;NA;japanese
410;18;condition1;_;;;;;;0.0-6.0-1.99;;NA;1;;+;NA;175535;NA;409;html-keyboard-response;;NA;japanese
411;18;condition1;_;;;;;;0.0-6.0-2.99;;NA;2;;img2/Mfrench/4.jpg;NA;175751;NA;410;image-keyboard-response;;NA;japanese
412;18;condition1;S_M;S;R;;;;0.0-6.0-3.99;d;311;3;M;Press S if the two images were the same;NA;NA;NA;NA;;;NA;japanese
413;18;condition1;_;;;;;;0.0-6.0-0.100;;NA;0;;img2/jap/10.jpg;NA;176275;NA;412;image-keyboard-response;;NA;japanese
414;18;condition1;_;;;;;;0.0-6.0-1.100;;NA;1;;+;NA;176584;NA;413;html-keyboard-response;;NA;japanese
415;18;condition1;_;;;;;;0.0-6.0-2.100;;NA;2;;img2/Mjap/10.jpg;NA;176800;NA;414;image-keyboard-response;;NA;japanese
416;18;condition1;S_M;S;J;;;;0.0-6.0-3.100;d;543;3;M;Press S if the two images were the same;NA;NA;NA;NA;;;NA;japanese
417;18;condition1;_;;;;;;0.0-6.0-0.101;;NA;0;;img2/french/2.jpg;NA;177557;NA;416;image-keyboard-response;;NA;japanese
418;18;condition1;_;;;;;;0.0-6.0-1.101;;NA;1;;+;NA;177865;NA;417;html-keyboard-response;;NA;japanese
419;18;condition1;_;;;;;;0.0-6.0-2.101;;NA;2;;img2/french/9.jpg;NA;178081;NA;418;image-keyboard-response;;NA;japanese
420;18;condition1;D_T;D;R;;;;0.0-6.0-3.101;d;357;3;T;Press S if the two images were the same;NA;NA;NA;NA;;;NA;japanese
421;18;condition1;_;;;;;;0.0-6.0-0.102;;NA;0;;img2/tools/1.jpg;NA;178648;NA;420;image-keyboard-response;;NA;japanese
422;18;condition1;_;;;;;;0.0-6.0-1.102;;NA;1;;+;NA;178955;NA;421;html-keyboard-response;;NA;japanese
423;18;condition1;_;;;;;;0.0-6.0-2.102;;NA;2;;img2/tools/7.jpg;NA;179157;NA;422;image-keyboard-response;;NA;japanese
424;18;condition1;D_T;D;O;;;;0.0-6.0-3.102;d;345;3;T;Press S if the two images were the same;NA;NA;NA;NA;;;NA;japanese
425;18;condition1;_;;;;;;0.0-6.0-0.103;;NA;0;;img2/french/11.jpg;NA;179711;NA;424;image-keyboard-response;;NA;japanese
426;18;condition1;_;;;;;;0.0-6.0-1.103;;NA;1;;+;NA;180019;NA;425;html-keyboard-response;;NA;japanese
427;18;condition1;_;;;;;;0.0-6.0-2.103;;NA;2;;img2/french/6.jpg;NA;180234;NA;426;image-keyboard-response;;NA;japanese
428;18;condition1;D_T;D;R;;;;0.0-6.0-3.103;d;437;3;T;Press S if the two images were the same;NA;NA;NA;NA;;;NA;japanese
429;18;condition1;_;;;;;;0.0-6.0-0.104;;NA;0;;img2/Mjap/5.jpg;NA;180881;NA;428;image-keyboard-response;;NA;japanese
430;18;condition1;_;;;;;;0.0-6.0-1.104;;NA;1;;+;NA;181187;NA;429;html-keyboard-response;;NA;japanese
431;18;condition1;_;;;;;;0.0-6.0-2.104;;NA;2;;img2/Mjap/12.jpg;NA;181403;NA;430;image-keyboard-response;;NA;japanese
432;18;condition1;D_M;D;J;;;;0.0-6.0-3.104;d;355;3;M;Press S if the two images were the same;NA;NA;NA;NA;;;NA;japanese
433;18;condition1;_;;;;;;0.0-6.0-0.105;;NA;0;;img2/Mfaces/3.jpg;NA;181971;NA;432;image-keyboard-response;;NA;japanese
434;18;condition1;_;;;;;;0.0-6.0-1.105;;NA;1;;+;NA;182278;NA;433;html-keyboard-response;;NA;japanese
435;18;condition1;_;;;;;;0.0-6.0-2.105;;NA;2;;img2/Mfaces/13.jpg;NA;182494;NA;434;image-keyboard-response;;NA;japanese
436;18;condition1;D_M;D;H;;;;0.0-6.0-3.105;d;363;3;M;Press S if the two images were the same;NA;NA;NA;NA;;;NA;japanese
437;18;condition1;_;;;;;;0.0-6.0-0.106;;NA;0;;img2/jap/5.jpg;NA;183064;NA;436;image-keyboard-response;;NA;japanese
438;18;condition1;_;;;;;;0.0-6.0-1.106;;NA;1;;+;NA;183373;NA;437;html-keyboard-response;;NA;japanese
439;18;condition1;_;;;;;;0.0-6.0-2.106;;NA;2;;img2/Mjap/5.jpg;NA;183587;NA;438;image-keyboard-response;;NA;japanese
440;18;condition1;S_M;S;J;;;;0.0-6.0-3.106;s;443;3;M;Press S if the two images were the same;NA;NA;NA;NA;;;NA;japanese
441;18;condition1;_;;;;;;0.0-6.0-0.107;;NA;0;;img2/jap/13.jpg;NA;184252;NA;440;image-keyboard-response;;NA;japanese
442;18;condition1;_;;;;;;0.0-6.0-1.107;;NA;1;;+;NA;184558;NA;441;html-keyboard-response;;NA;japanese
443;18;condition1;_;;;;;;0.0-6.0-2.107;;NA;2;;img2/jap/13.jpg;NA;184774;NA;442;image-keyboard-response;;NA;japanese
444;18;condition1;S_T;S;J;;;;0.0-6.0-3.107;s;390;3;T;Press S if the two images were the same;NA;NA;NA;NA;;;NA;japanese
445;18;condition1;_;;;;;;0.0-6.0-0.108;;NA;0;;img2/Mfaces/7.jpg;NA;185371;NA;444;image-keyboard-response;;NA;japanese
446;18;condition1;_;;;;;;0.0-6.0-1.108;;NA;1;;+;NA;185679;NA;445;html-keyboard-response;;NA;japanese
447;18;condition1;_;;;;;;0.0-6.0-2.108;;NA;2;;img2/Mfaces/13.jpg;NA;185894;NA;446;image-keyboard-response;;NA;japanese
448;18;condition1;D_M;D;H;;;;0.0-6.0-3.108;d;384;3;M;Press S if the two images were the same;NA;NA;NA;NA;;;NA;japanese
449;18;condition1;_;;;;;;0.0-6.0-0.109;;NA;0;;img2/faces/13.jpg;NA;186493;NA;448;image-keyboard-response;;NA;japanese
450;18;condition1;_;;;;;;0.0-6.0-1.109;;NA;1;;+;NA;186802;NA;449;html-keyboard-response;;NA;japanese
451;18;condition1;_;;;;;;0.0-6.0-2.109;;NA;2;;img2/faces/13.jpg;NA;187014;NA;450;image-keyboard-response;;NA;japanese
452;18;condition1;S_T;S;H;;;;0.0-6.0-3.109;s;666;3;T;Press S if the two images were the same;NA;NA;NA;NA;;;NA;japanese
453;18;condition1;_;;;;;;0.0-6.0-0.110;;NA;0;;img2/Mfrench/8.jpg;NA;187892;NA;452;image-keyboard-response;;NA;japanese
454;18;condition1;_;;;;;;0.0-6.0-1.110;;NA;1;;+;NA;188199;NA;453;html-keyboard-response;;NA;japanese
455;18;condition1;_;;;;;;0.0-6.0-2.110;;NA;2;;img2/Mfrench/9.jpg;NA;188415;NA;454;image-keyboard-response;;NA;japanese
456;18;condition1;D_M;D;R;;;;0.0-6.0-3.110;d;1103;3;M;Press S if the two images were the same;NA;NA;NA;NA;;;NA;japanese
457;18;condition1;_;;;;;;0.0-6.0-0.111;;NA;0;;img2/tools/9.jpg;NA;189729;NA;456;image-keyboard-response;;NA;japanese
458;18;condition1;_;;;;;;0.0-6.0-1.111;;NA;1;;+;NA;190034;NA;457;html-keyboard-response;;NA;japanese
459;18;condition1;_;;;;;;0.0-6.0-2.111;;NA;2;;img2/tools/12.jpg;NA;190250;NA;458;image-keyboard-response;;NA;japanese
460;18;condition1;D_T;D;O;;;;0.0-6.0-3.111;d;604;3;T;Press S if the two images were the same;NA;NA;NA;NA;;;NA;japanese
461;18;condition1;_;;;;;;0.0-6.0-0.112;;NA;0;;img2/faces/11.jpg;NA;191068;NA;460;image-keyboard-response;;NA;japanese
462;18;condition1;_;;;;;;0.0-6.0-1.112;;NA;1;;+;NA;191376;NA;461;html-keyboard-response;;NA;japanese
463;18;condition1;_;;;;;;0.0-6.0-2.112;;NA;2;;img2/faces/6.jpg;NA;191590;NA;462;image-keyboard-response;;NA;japanese
464;18;condition1;D_T;D;H;;;;0.0-6.0-3.112;d;456;3;T;Press S if the two images were the same;NA;NA;NA;NA;;;NA;japanese
465;18;condition1;_;;;;;;0.0-6.0-0.113;;NA;0;;img2/faces/13.jpg;NA;192254;NA;464;image-keyboard-response;;NA;japanese
466;18;condition1;_;;;;;;0.0-6.0-1.113;;NA;1;;+;NA;192561;NA;465;html-keyboard-response;;NA;japanese
467;18;condition1;_;;;;;;0.0-6.0-2.113;;NA;2;;img2/Mfaces/13.jpg;NA;192776;NA;466;image-keyboard-response;;NA;japanese
468;18;condition1;S_M;S;H;;;;0.0-6.0-3.113;d;495;3;M;Press S if the two images were the same;NA;NA;NA;NA;;;NA;japanese
469;18;condition1;_;;;;;;0.0-6.0-0.114;;NA;0;;img2/false/9.jpg;NA;193482;NA;468;image-keyboard-response;;NA;japanese
470;18;condition1;_;;;;;;0.0-6.0-1.114;;NA;1;;+;NA;193790;NA;469;html-keyboard-response;;NA;japanese
471;18;condition1;_;;;;;;0.0-6.0-2.114;;NA;2;;img2/false/12.jpg;NA;194004;NA;470;image-keyboard-response;;NA;japanese
472;18;condition1;D_T;D;M;;;;0.0-6.0-3.114;d;474;3;T;Press S if the two images were the same;NA;NA;NA;NA;;;NA;japanese
473;18;condition1;_;;;;;;0.0-6.0-0.115;;NA;0;;img2/Mtools/11.jpg;NA;194698;NA;472;image-keyboard-response;;NA;japanese
474;18;condition1;_;;;;;;0.0-6.0-1.115;;NA;1;;+;NA;195007;NA;473;html-keyboard-response;;NA;japanese
475;18;condition1;_;;;;;;0.0-6.0-2.115;;NA;2;;img2/Mtools/6.jpg;NA;195223;NA;474;image-keyboard-response;;NA;japanese
476;18;condition1;D_M;D;O;;;;0.0-6.0-3.115;d;383;3;M;Press S if the two images were the same;NA;NA;NA;NA;;;NA;japanese
477;18;condition1;_;;;;;;0.0-6.0-0.116;;NA;0;;img2/french/2.jpg;NA;195820;NA;476;image-keyboard-response;;NA;japanese
478;18;condition1;_;;;;;;0.0-6.0-1.116;;NA;1;;+;NA;196127;NA;477;html-keyboard-response;;NA;japanese
479;18;condition1;_;;;;;;0.0-6.0-2.116;;NA;2;;img2/french/2.jpg;NA;196340;NA;478;image-keyboard-response;;NA;japanese
480;18;condition1;S_T;S;R;;;;0.0-6.0-3.116;s;419;3;T;Press S if the two images were the same;NA;NA;NA;NA;;;NA;japanese
481;18;condition1;_;;;;;;0.0-6.0-0.117;;NA;0;;img2/french/4.jpg;NA;196972;NA;480;image-keyboard-response;;NA;japanese
482;18;condition1;_;;;;;;0.0-6.0-1.117;;NA;1;;+;NA;197282;NA;481;html-keyboard-response;;NA;japanese
483;18;condition1;_;;;;;;0.0-6.0-2.117;;NA;2;;img2/french/4.jpg;NA;197498;NA;482;image-keyboard-response;;NA;japanese
484;18;condition1;S_T;S;R;;;;0.0-6.0-3.117;s;327;3;T;Press S if the two images were the same;NA;NA;NA;NA;;;NA;japanese
485;18;condition1;_;;;;;;0.0-6.0-0.118;;NA;0;;img2/Mfaces/14.jpg;NA;198036;NA;484;image-keyboard-response;;NA;japanese
486;18;condition1;_;;;;;;0.0-6.0-1.118;;NA;1;;+;NA;198346;NA;485;html-keyboard-response;;NA;japanese
487;18;condition1;_;;;;;;0.0-6.0-2.118;;NA;2;;img2/Mfaces/13.jpg;NA;198560;NA;486;image-keyboard-response;;NA;japanese
488;18;condition1;D_M;D;H;;;;0.0-6.0-3.118;d;374;3;M;Press S if the two images were the same;NA;NA;NA;NA;;;NA;japanese
489;18;condition1;_;;;;;;0.0-6.0-0.119;;NA;0;;img2/Mtools/4.jpg;NA;199154;NA;488;image-keyboard-response;;NA;japanese
490;18;condition1;_;;;;;;0.0-6.0-1.119;;NA;1;;+;NA;199475;NA;489;html-keyboard-response;;NA;japanese
491;18;condition1;_;;;;;;0.0-6.0-2.119;;NA;2;;img2/Mtools/12.jpg;NA;199678;NA;490;image-keyboard-response;;NA;japanese
492;18;condition1;D_M;D;O;;;;0.0-6.0-3.119;d;473;3;M;Press S if the two images were the same;NA;NA;NA;NA;;;NA;japanese
493;18;condition1;_;;;;;;0.0-6.0-0.120;;NA;0;;img2/tools/1.jpg;NA;200371;NA;492;image-keyboard-response;;NA;japanese
494;18;condition1;_;;;;;;0.0-6.0-1.120;;NA;1;;+;NA;200679;NA;493;html-keyboard-response;;NA;japanese
495;18;condition1;_;;;;;;0.0-6.0-2.120;;NA;2;;img2/tools/1.jpg;NA;200898;NA;494;image-keyboard-response;;NA;japanese
496;18;condition1;S_T;S;O;;;;0.0-6.0-3.120;s;420;3;T;Press S if the two images were the same;NA;NA;NA;NA;;;NA;japanese
497;18;condition1;_;;;;;;0.0-6.0-0.121;;NA;0;;img2/jap/7.jpg;NA;201528;NA;496;image-keyboard-response;;NA;japanese
498;18;condition1;_;;;;;;0.0-6.0-1.121;;NA;1;;+;NA;201837;NA;497;html-keyboard-response;;NA;japanese
499;18;condition1;_;;;;;;0.0-6.0-2.121;;NA;2;;img2/jap/13.jpg;NA;202049;NA;498;image-keyboard-response;;NA;japanese
500;18;condition1;D_T;D;J;;;;0.0-6.0-3.121;d;652;3;T;Press S if the two images were the same;NA;NA;NA;NA;;;NA;japanese
501;18;condition1;_;;;;;;0.0-6.0-0.122;;NA;0;;img2/false/2.jpg;NA;202911;NA;500;image-keyboard-response;;NA;japanese
502;18;condition1;_;;;;;;0.0-6.0-1.122;;NA;1;;+;NA;203216;NA;501;html-keyboard-response;;NA;japanese
503;18;condition1;_;;;;;;0.0-6.0-2.122;;NA;2;;img2/false/9.jpg;NA;203431;NA;502;image-keyboard-response;;NA;japanese
504;18;condition1;D_T;D;M;;;;0.0-6.0-3.122;d;443;3;T;Press S if the two images were the same;NA;NA;NA;NA;;;NA;japanese
505;18;condition1;_;;;;;;0.0-6.0-0.123;;NA;0;;img2/french/8.jpg;NA;204091;NA;504;image-keyboard-response;;NA;japanese
506;18;condition1;_;;;;;;0.0-6.0-1.123;;NA;1;;+;NA;204398;NA;505;html-keyboard-response;;NA;japanese
507;18;condition1;_;;;;;;0.0-6.0-2.123;;NA;2;;img2/french/9.jpg;NA;204612;NA;506;image-keyboard-response;;NA;japanese
508;18;condition1;D_T;D;R;;;;0.0-6.0-3.123;d;361;3;T;Press S if the two images were the same;NA;NA;NA;NA;;;NA;japanese
509;18;condition1;_;;;;;;0.0-6.0-0.124;;NA;0;;img2/Mfaces/4.jpg;NA;205183;NA;508;image-keyboard-response;;NA;japanese
510;18;condition1;_;;;;;;0.0-6.0-1.124;;NA;1;;+;NA;205487;NA;509;html-keyboard-response;;NA;japanese
511;18;condition1;_;;;;;;0.0-6.0-2.124;;NA;2;;img2/Mfaces/12.jpg;NA;205700;NA;510;image-keyboard-response;;NA;japanese
512;18;condition1;D_M;D;H;;;;0.0-6.0-3.124;d;372;3;M;Press S if the two images were the same;NA;NA;NA;NA;;;NA;japanese
513;18;condition1;_;;;;;;0.0-6.0-0.125;;NA;0;;img2/Mfrench/1.jpg;NA;206290;NA;512;image-keyboard-response;;NA;japanese
514;18;condition1;_;;;;;;0.0-6.0-1.125;;NA;1;;+;NA;206597;NA;513;html-keyboard-response;;NA;japanese
515;18;condition1;_;;;;;;0.0-6.0-2.125;;NA;2;;img2/Mfrench/7.jpg;NA;206813;NA;514;image-keyboard-response;;NA;japanese
516;18;condition1;D_M;D;R;;;;0.0-6.0-3.125;d;458;3;M;Press S if the two images were the same;NA;NA;NA;NA;;;NA;japanese
517;18;condition1;_;;;;;;0.0-6.0-0.126;;NA;0;;img2/jap/2.jpg;NA;207490;NA;516;image-keyboard-response;;NA;japanese
518;18;condition1;_;;;;;;0.0-6.0-1.126;;NA;1;;+;NA;207797;NA;517;html-keyboard-response;;NA;japanese
519;18;condition1;_;;;;;;0.0-6.0-2.126;;NA;2;;img2/jap/9.jpg;NA;208014;NA;518;image-keyboard-response;;NA;japanese
520;18;condition1;D_T;D;J;;;;0.0-6.0-3.126;d;360;3;T;Press S if the two images were the same;NA;NA;NA;NA;;;NA;japanese
521;18;condition1;_;;;;;;0.0-6.0-0.127;;NA;0;;img2/false/7.jpg;NA;208587;NA;520;image-keyboard-response;;NA;japanese
522;18;condition1;_;;;;;;0.0-6.0-1.127;;NA;1;;+;NA;208895;NA;521;html-keyboard-response;;NA;japanese
523;18;condition1;_;;;;;;0.0-6.0-2.127;;NA;2;;img2/Mfalse/7.jpg;NA;209112;NA;522;image-keyboard-response;;NA;japanese
524;18;condition1;S_M;S;M;;;;0.0-6.0-3.127;d;550;3;M;Press S if the two images were the same;NA;NA;NA;NA;;;NA;japanese
525;18;condition1;_;;;;;;0.0-6.0-0.128;;NA;0;;img2/false/4.jpg;NA;209869;NA;524;image-keyboard-response;;NA;japanese
526;18;condition1;_;;;;;;0.0-6.0-1.128;;NA;1;;+;NA;210175;NA;525;html-keyboard-response;;NA;japanese
527;18;condition1;_;;;;;;0.0-6.0-2.128;;NA;2;;img2/Mfalse/4.jpg;NA;210391;NA;526;image-keyboard-response;;NA;japanese
528;18;condition1;S_M;S;M;;;;0.0-6.0-3.128;d;423;3;M;Press S if the two images were the same;NA;NA;NA;NA;;;NA;japanese
529;18;condition1;_;;;;;;0.0-6.0-0.129;;NA;0;;img2/french/8.jpg;NA;211023;NA;528;image-keyboard-response;;NA;japanese
530;18;condition1;_;;;;;;0.0-6.0-1.129;;NA;1;;+;NA;211330;NA;529;html-keyboard-response;;NA;japanese
531;18;condition1;_;;;;;;0.0-6.0-2.129;;NA;2;;img2/Mfrench/8.jpg;NA;211546;NA;530;image-keyboard-response;;NA;japanese
532;18;condition1;S_M;S;R;;;;0.0-6.0-3.129;d;379;3;M;Press S if the two images were the same;NA;NA;NA;NA;;;NA;japanese
533;18;condition1;_;;;;;;0.0-6.0-0.130;;NA;0;;img2/french/6.jpg;NA;212133;NA;532;image-keyboard-response;;NA;japanese
534;18;condition1;_;;;;;;0.0-6.0-1.130;;NA;1;;+;NA;212442;NA;533;html-keyboard-response;;NA;japanese
535;18;condition1;_;;;;;;0.0-6.0-2.130;;NA;2;;img2/Mfrench/6.jpg;NA;212653;NA;534;image-keyboard-response;;NA;japanese
536;18;condition1;S_M;S;R;;;;0.0-6.0-3.130;d;474;3;M;Press S if the two images were the same;NA;NA;NA;NA;;;NA;japanese
537;18;condition1;_;;;;;;0.0-6.0-0.131;;NA;0;;img2/jap/5.jpg;NA;213335;NA;536;image-keyboard-response;;NA;japanese
538;18;condition1;_;;;;;;0.0-6.0-1.131;;NA;1;;+;NA;213640;NA;537;html-keyboard-response;;NA;japanese
539;18;condition1;_;;;;;;0.0-6.0-2.131;;NA;2;;img2/jap/5.jpg;NA;213858;NA;538;image-keyboard-response;;NA;japanese
540;18;condition1;S_T;S;J;;;;0.0-6.0-3.131;s;277;3;T;Press S if the two images were the same;NA;NA;NA;NA;;;NA;japanese
541;18;condition1;_;;;;;;0.0-6.0-0.132;;NA;0;;img2/false/6.jpg;NA;214345;NA;540;image-keyboard-response;;NA;japanese
542;18;condition1;_;;;;;;0.0-6.0-1.132;;NA;1;;+;NA;214656;NA;541;html-keyboard-response;;NA;japanese
543;18;condition1;_;;;;;;0.0-6.0-2.132;;NA;2;;img2/false/6.jpg;NA;214872;NA;542;image-keyboard-response;;NA;japanese
544;18;condition1;S_T;S;M;;;;0.0-6.0-3.132;d;494;3;T;Press S if the two images were the same;NA;NA;NA;NA;;;NA;japanese
545;18;condition1;_;;;;;;0.0-6.0-0.133;;NA;0;;img2/tools/2.jpg;NA;215569;NA;544;image-keyboard-response;;NA;japanese
546;18;condition1;_;;;;;;0.0-6.0-1.133;;NA;1;;+;NA;215877;NA;545;html-keyboard-response;;NA;japanese
547;18;condition1;_;;;;;;0.0-6.0-2.133;;NA;2;;img2/tools/2.jpg;NA;216094;NA;546;image-keyboard-response;;NA;japanese
548;18;condition1;S_T;S;O;;;;0.0-6.0-3.133;s;480;3;T;Press S if the two images were the same;NA;NA;NA;NA;;;NA;japanese
549;18;condition1;_;;;;;;0.0-6.0-0.134;;NA;0;;img2/Mfaces/10.jpg;NA;216793;NA;548;image-keyboard-response;;NA;japanese
550;18;condition1;_;;;;;;0.0-6.0-1.134;;NA;1;;+;NA;217105;NA;549;html-keyboard-response;;NA;japanese
551;18;condition1;_;;;;;;0.0-6.0-2.134;;NA;2;;img2/Mfaces/12.jpg;NA;217320;NA;550;image-keyboard-response;;NA;japanese
552;18;condition1;D_M;D;H;;;;0.0-6.0-3.134;d;463;3;M;Press S if the two images were the same;NA;NA;NA;NA;;;NA;japanese
553;18;condition1;_;;;;;;0.0-6.0-0.135;;NA;0;;img2/jap/10.jpg;NA;218000;NA;552;image-keyboard-response;;NA;japanese
554;18;condition1;_;;;;;;0.0-6.0-1.135;;NA;1;;+;NA;218322;NA;553;html-keyboard-response;;NA;japanese
555;18;condition1;_;;;;;;0.0-6.0-2.135;;NA;2;;img2/jap/12.jpg;NA;218537;NA;554;image-keyboard-response;;NA;japanese
556;18;condition1;D_T;D;J;;;;0.0-6.0-3.135;d;558;3;T;Press S if the two images were the same;NA;NA;NA;NA;;;NA;japanese
557;18;condition1;_;;;;;;0.0-6.0-0.136;;NA;0;;img2/jap/12.jpg;NA;219322;NA;556;image-keyboard-response;;NA;japanese
558;18;condition1;_;;;;;;0.0-6.0-1.136;;NA;1;;+;NA;219630;NA;557;html-keyboard-response;;NA;japanese
559;18;condition1;_;;;;;;0.0-6.0-2.136;;NA;2;;img2/jap/12.jpg;NA;219845;NA;558;image-keyboard-response;;NA;japanese
560;18;condition1;S_T;S;J;;;;0.0-6.0-3.136;s;466;3;T;Press S if the two images were the same;NA;NA;NA;NA;;;NA;japanese
561;18;condition1;_;;;;;;0.0-6.0-0.137;;NA;0;;img2/Mfalse/5.jpg;NA;220521;NA;560;image-keyboard-response;;NA;japanese
562;18;condition1;_;;;;;;0.0-6.0-1.137;;NA;1;;+;NA;220828;NA;561;html-keyboard-response;;NA;japanese
563;18;condition1;_;;;;;;0.0-6.0-2.137;;NA;2;;img2/Mfalse/12.jpg;NA;221046;NA;562;image-keyboard-response;;NA;japanese
564;18;condition1;D_M;D;M;;;;0.0-6.0-3.137;d;679;3;M;Press S if the two images were the same;NA;NA;NA;NA;;;NA;japanese
565;18;condition1;_;;;;;;0.0-6.0-0.138;;NA;0;;img2/false/5.jpg;NA;221937;NA;564;image-keyboard-response;;NA;japanese
566;18;condition1;_;;;;;;0.0-6.0-1.138;;NA;1;;+;NA;222243;NA;565;html-keyboard-response;;NA;japanese
567;18;condition1;_;;;;;;0.0-6.0-2.138;;NA;2;;img2/Mfalse/5.jpg;NA;222458;NA;566;image-keyboard-response;;NA;japanese
568;18;condition1;S_M;S;M;;;;0.0-6.0-3.138;d;763;3;M;Press S if the two images were the same;NA;NA;NA;NA;;;NA;japanese
569;18;condition1;_;;;;;;0.0-6.0-0.139;;NA;0;;img2/false/6.jpg;NA;223430;NA;568;image-keyboard-response;;NA;japanese
570;18;condition1;_;;;;;;0.0-6.0-1.139;;NA;1;;+;NA;223742;NA;569;html-keyboard-response;;NA;japanese
571;18;condition1;_;;;;;;0.0-6.0-2.139;;NA;2;;img2/false/14.jpg;NA;223957;NA;570;image-keyboard-response;;NA;japanese
572;18;condition1;D_T;D;M;;;;0.0-6.0-3.139;d;717;3;T;Press S if the two images were the same;NA;NA;NA;NA;;;NA;japanese
573;18;condition1;_;;;;;;0.0-6.0-0.140;;NA;0;;img2/tools/12.jpg;NA;224879;NA;572;image-keyboard-response;;NA;japanese
574;18;condition1;_;;;;;;0.0-6.0-1.140;;NA;1;;+;NA;225183;NA;573;html-keyboard-response;;NA;japanese
575;18;condition1;_;;;;;;0.0-6.0-2.140;;NA;2;;img2/tools/8.jpg;NA;225398;NA;574;image-keyboard-response;;NA;japanese
576;18;condition1;D_T;D;O;;;;0.0-6.0-3.140;d;544;3;T;Press S if the two images were the same;NA;NA;NA;NA;;;NA;japanese
577;18;condition1;_;;;;;;0.0-6.0-0.141;;NA;0;;img2/jap/12.jpg;NA;226150;NA;576;image-keyboard-response;;NA;japanese
578;18;condition1;_;;;;;;0.0-6.0-1.141;;NA;1;;+;NA;226459;NA;577;html-keyboard-response;;NA;japanese
579;18;condition1;_;;;;;;0.0-6.0-2.141;;NA;2;;img2/Mjap/12.jpg;NA;226677;NA;578;image-keyboard-response;;NA;japanese
580;18;condition1;S_M;S;J;;;;0.0-6.0-3.141;s;481;3;M;Press S if the two images were the same;NA;NA;NA;NA;;;NA;japanese
581;18;condition1;_;;;;;;0.0-6.0-0.142;;NA;0;;img2/jap/8.jpg;NA;227370;NA;580;image-keyboard-response;;NA;japanese
582;18;condition1;_;;;;;;0.0-6.0-1.142;;NA;1;;+;NA;227680;NA;581;html-keyboard-response;;NA;japanese
583;18;condition1;_;;;;;;0.0-6.0-2.142;;NA;2;;img2/jap/8.jpg;NA;227896;NA;582;image-keyboard-response;;NA;japanese
584;18;condition1;S_T;S;J;;;;0.0-6.0-3.142;s;502;3;T;Press S if the two images were the same;NA;NA;NA;NA;;;NA;japanese
585;18;condition1;_;;;;;;0.0-6.0-0.143;;NA;0;;img2/faces/3.jpg;NA;228605;NA;584;image-keyboard-response;;NA;japanese
586;18;condition1;_;;;;;;0.0-6.0-1.143;;NA;1;;+;NA;228915;NA;585;html-keyboard-response;;NA;japanese
587;18;condition1;_;;;;;;0.0-6.0-2.143;;NA;2;;img2/Mfaces/3.jpg;NA;229133;NA;586;image-keyboard-response;;NA;japanese
588;18;condition1;S_M;S;H;;;;0.0-6.0-3.143;d;2939;3;M;Press S if the two images were the same;NA;NA;NA;NA;;;NA;japanese
589;18;condition1;_;;;;;;0.0-6.0-0.144;;NA;0;;img2/false/4.jpg;NA;232286;NA;588;image-keyboard-response;;NA;japanese
590;18;condition1;_;;;;;;0.0-6.0-1.144;;NA;1;;+;NA;232598;NA;589;html-keyboard-response;;NA;japanese
591;18;condition1;_;;;;;;0.0-6.0-2.144;;NA;2;;img2/false/12.jpg;NA;232812;NA;590;image-keyboard-response;;NA;japanese
592;18;condition1;D_T;D;M;;;;0.0-6.0-3.144;d;1027;3;T;Press S if the two images were the same;NA;NA;NA;NA;;;NA;japanese
593;18;condition1;_;;;;;;0.0-6.0-0.145;;NA;0;;img2/Mfaces/5.jpg;NA;234059;NA;592;image-keyboard-response;;NA;japanese
594;18;condition1;_;;;;;;0.0-6.0-1.145;;NA;1;;+;NA;234366;NA;593;html-keyboard-response;;NA;japanese
595;18;condition1;_;;;;;;0.0-6.0-2.145;;NA;2;;img2/Mfaces/12.jpg;NA;234568;NA;594;image-keyboard-response;;NA;japanese
596;18;condition1;D_M;D;H;;;;0.0-6.0-3.145;d;703;3;M;Press S if the two images were the same;NA;NA;NA;NA;;;NA;japanese
597;18;condition1;_;;;;;;0.0-6.0-0.146;;NA;0;;img2/faces/6.jpg;NA;235488;NA;596;image-keyboard-response;;NA;japanese
598;18;condition1;_;;;;;;0.0-6.0-1.146;;NA;1;;+;NA;235798;NA;597;html-keyboard-response;;NA;japanese
599;18;condition1;_;;;;;;0.0-6.0-2.146;;NA;2;;img2/faces/6.jpg;NA;236012;NA;598;image-keyboard-response;;NA;japanese
600;18;condition1;S_T;S;H;;;;0.0-6.0-3.146;s;273;3;T;Press S if the two images were the same;NA;NA;NA;NA;;;NA;japanese
601;18;condition1;_;;;;;;0.0-6.0-0.147;;NA;0;;img2/false/10.jpg;NA;236502;NA;600;image-keyboard-response;;NA;japanese
602;18;condition1;_;;;;;;0.0-6.0-1.147;;NA;1;;+;NA;236811;NA;601;html-keyboard-response;;NA;japanese
603;18;condition1;_;;;;;;0.0-6.0-2.147;;NA;2;;img2/Mfalse/10.jpg;NA;237026;NA;602;image-keyboard-response;;NA;japanese
604;18;condition1;S_M;S;M;;;;0.0-6.0-3.147;d;956;3;M;Press S if the two images were the same;NA;NA;NA;NA;;;NA;japanese
605;18;condition1;_;;;;;;0.0-6.0-0.148;;NA;0;;img2/false/9.jpg;NA;238192;NA;604;image-keyboard-response;;NA;japanese
606;18;condition1;_;;;;;;0.0-6.0-1.148;;NA;1;;+;NA;238499;NA;605;html-keyboard-response;;NA;japanese
607;18;condition1;_;;;;;;0.0-6.0-2.148;;NA;2;;img2/false/9.jpg;NA;238713;NA;606;image-keyboard-response;;NA;japanese
608;18;condition1;S_T;S;M;;;;0.0-6.0-3.148;d;3357;3;T;Press S if the two images were the same;NA;NA;NA;NA;;;NA;japanese
609;18;condition1;_;;;;;;0.0-6.0-0.149;;NA;0;;img2/false/3.jpg;NA;242278;NA;608;image-keyboard-response;;NA;japanese
610;18;condition1;_;;;;;;0.0-6.0-1.149;;NA;1;;+;NA;242584;NA;609;html-keyboard-response;;NA;japanese
611;18;condition1;_;;;;;;0.0-6.0-2.149;;NA;2;;img2/false/3.jpg;NA;242795;NA;610;image-keyboard-response;;NA;japanese
612;18;condition1;S_T;S;M;;;;0.0-6.0-3.149;s;394;3;T;Press S if the two images were the same;NA;NA;NA;NA;;;NA;japanese
613;18;condition1;_;;;;;;0.0-6.0-0.150;;NA;0;;img2/Mfaces/8.jpg;NA;243406;NA;612;image-keyboard-response;;NA;japanese
614;18;condition1;_;;;;;;0.0-6.0-1.150;;NA;1;;+;NA;243712;NA;613;html-keyboard-response;;NA;japanese
615;18;condition1;_;;;;;;0.0-6.0-2.150;;NA;2;;img2/Mfaces/9.jpg;NA;243926;NA;614;image-keyboard-response;;NA;japanese
616;18;condition1;D_M;D;H;;;;0.0-6.0-3.150;d;5048;3;M;Press S if the two images were the same;NA;NA;NA;NA;;;NA;japanese
617;18;condition1;_;;;;;;0.0-6.0-0.151;;NA;0;;img2/Mfrench/2.jpg;NA;249190;NA;616;image-keyboard-response;;NA;japanese
618;18;condition1;_;;;;;;0.0-6.0-1.151;;NA;1;;+;NA;249497;NA;617;html-keyboard-response;;NA;japanese
619;18;condition1;_;;;;;;0.0-6.0-2.151;;NA;2;;img2/Mfrench/9.jpg;NA;249709;NA;618;image-keyboard-response;;NA;japanese
620;18;condition1;D_M;D;R;;;;0.0-6.0-3.151;d;607;3;M;Press S if the two images were the same;NA;NA;NA;NA;;;NA;japanese
621;18;condition1;_;;;;;;0.0-6.0-0.152;;NA;0;;img2/jap/3.jpg;NA;250528;NA;620;image-keyboard-response;;NA;japanese
622;18;condition1;_;;;;;;0.0-6.0-1.152;;NA;1;;+;NA;250834;NA;621;html-keyboard-response;;NA;japanese
623;18;condition1;_;;;;;;0.0-6.0-2.152;;NA;2;;img2/jap/13.jpg;NA;251051;NA;622;image-keyboard-response;;NA;japanese
624;18;condition1;D_T;D;J;;;;0.0-6.0-3.152;d;434;3;T;Press S if the two images were the same;NA;NA;NA;NA;;;NA;japanese
625;18;condition1;_;;;;;;0.0-6.0-0.153;;NA;0;;img2/french/8.jpg;NA;251700;NA;624;image-keyboard-response;;NA;japanese
626;18;condition1;_;;;;;;0.0-6.0-1.153;;NA;1;;+;NA;252008;NA;625;html-keyboard-response;;NA;japanese
627;18;condition1;_;;;;;;0.0-6.0-2.153;;NA;2;;img2/french/8.jpg;NA;252224;NA;626;image-keyboard-response;;NA;japanese
628;18;condition1;S_T;S;R;;;;0.0-6.0-3.153;s;325;3;T;Press S if the two images were the same;NA;NA;NA;NA;;;NA;japanese
629;18;condition1;_;;;;;;0.0-6.0-0.154;;NA;0;;img2/false/5.jpg;NA;252768;NA;628;image-keyboard-response;;NA;japanese
630;18;condition1;_;;;;;;0.0-6.0-1.154;;NA;1;;+;NA;253090;NA;629;html-keyboard-response;;NA;japanese
631;18;condition1;_;;;;;;0.0-6.0-2.154;;NA;2;;img2/false/5.jpg;NA;253305;NA;630;image-keyboard-response;;NA;japanese
632;18;condition1;S_T;S;M;;;;0.0-6.0-3.154;d;1996;3;T;Press S if the two images were the same;NA;NA;NA;NA;;;NA;japanese
633;18;condition1;_;;;;;;0.0-6.0-0.155;;NA;0;;img2/false/10.jpg;NA;255509;NA;632;image-keyboard-response;;NA;japanese
634;18;condition1;_;;;;;;0.0-6.0-1.155;;NA;1;;+;NA;255816;NA;633;html-keyboard-response;;NA;japanese
635;18;condition1;_;;;;;;0.0-6.0-2.155;;NA;2;;img2/false/12.jpg;NA;256033;NA;634;image-keyboard-response;;NA;japanese
636;18;condition1;D_T;D;M;;;;0.0-6.0-3.155;d;565;3;T;Press S if the two images were the same;NA;NA;NA;NA;;;NA;japanese
637;18;condition1;_;;;;;;0.0-6.0-0.156;;NA;0;;img2/jap/9.jpg;NA;256816;NA;636;image-keyboard-response;;NA;japanese
638;18;condition1;_;;;;;;0.0-6.0-1.156;;NA;1;;+;NA;257128;NA;637;html-keyboard-response;;NA;japanese
639;18;condition1;_;;;;;;0.0-6.0-2.156;;NA;2;;img2/jap/12.jpg;NA;257328;NA;638;image-keyboard-response;;NA;japanese
640;18;condition1;D_T;D;J;;;;0.0-6.0-3.156;d;485;3;T;Press S if the two images were the same;NA;NA;NA;NA;;;NA;japanese
641;18;condition1;_;;;;;;0.0-6.0-0.157;;NA;0;;img2/false/6.jpg;NA;258026;NA;640;image-keyboard-response;;NA;japanese
642;18;condition1;_;;;;;;0.0-6.0-1.157;;NA;1;;+;NA;258333;NA;641;html-keyboard-response;;NA;japanese
643;18;condition1;_;;;;;;0.0-6.0-2.157;;NA;2;;img2/Mfalse/6.jpg;NA;258551;NA;642;image-keyboard-response;;NA;japanese
644;18;condition1;S_M;S;M;;;;0.0-6.0-3.157;d;554;3;M;Press S if the two images were the same;NA;NA;NA;NA;;;NA;japanese
645;18;condition1;_;;;;;;0.0-6.0-0.158;;NA;0;;img2/false/14.jpg;NA;259318;NA;644;image-keyboard-response;;NA;japanese
646;18;condition1;_;;;;;;0.0-6.0-1.158;;NA;1;;+;NA;259625;NA;645;html-keyboard-response;;NA;japanese
647;18;condition1;_;;;;;;0.0-6.0-2.158;;NA;2;;img2/false/13.jpg;NA;259841;NA;646;image-keyboard-response;;NA;japanese
648;18;condition1;D_T;D;M;;;;0.0-6.0-3.158;d;404;3;T;Press S if the two images were the same;NA;NA;NA;NA;;;NA;japanese
649;18;condition1;_;;;;;;0.0-6.0-0.159;;NA;0;;img2/jap/4.jpg;NA;260459;NA;648;image-keyboard-response;;NA;japanese
650;18;condition1;_;;;;;;0.0-6.0-1.159;;NA;1;;+;NA;260766;NA;649;html-keyboard-response;;NA;japanese
651;18;condition1;_;;;;;;0.0-6.0-2.159;;NA;2;;img2/Mjap/4.jpg;NA;260968;NA;650;image-keyboard-response;;NA;japanese
652;18;condition1;S_M;S;J;;;;0.0-6.0-3.159;d;438;3;M;Press S if the two images were the same;NA;NA;NA;NA;;;NA;japanese
653;18;condition1;_;;;;;;0.0-6.0-0.160;;NA;0;;img2/false/11.jpg;NA;261627;NA;652;image-keyboard-response;;NA;japanese
654;18;condition1;_;;;;;;0.0-6.0-1.160;;NA;1;;+;NA;261936;NA;653;html-keyboard-response;;NA;japanese
655;18;condition1;_;;;;;;0.0-6.0-2.160;;NA;2;;img2/Mfalse/11.jpg;NA;262154;NA;654;image-keyboard-response;;NA;japanese
656;18;condition1;S_M;S;M;;;;0.0-6.0-3.160;d;619;3;M;Press S if the two images were the same;NA;NA;NA;NA;;;NA;japanese
657;18;condition1;_;;;;;;0.0-6.0-0.161;;NA;0;;img2/faces/6.jpg;NA;262997;NA;656;image-keyboard-response;;NA;japanese
658;18;condition1;_;;;;;;0.0-6.0-1.161;;NA;1;;+;NA;263304;NA;657;html-keyboard-response;;NA;japanese
659;18;condition1;_;;;;;;0.0-6.0-2.161;;NA;2;;img2/faces/14.jpg;NA;263517;NA;658;image-keyboard-response;;NA;japanese
660;18;condition1;D_T;D;H;;;;0.0-6.0-3.161;d;1096;3;T;Press S if the two images were the same;NA;NA;NA;NA;;;NA;japanese
661;18;condition1;_;;;;;;0.0-6.0-0.162;;NA;0;;img2/Mtools/14.jpg;NA;264826;NA;660;image-keyboard-response;;NA;japanese
662;18;condition1;_;;;;;;0.0-6.0-1.162;;NA;1;;+;NA;265138;NA;661;html-keyboard-response;;NA;japanese
663;18;condition1;_;;;;;;0.0-6.0-2.162;;NA;2;;img2/Mtools/13.jpg;NA;265355;NA;662;image-keyboard-response;;NA;japanese
664;18;condition1;D_M;D;O;;;;0.0-6.0-3.162;d;490;3;M;Press S if the two images were the same;NA;NA;NA;NA;;;NA;japanese
665;18;condition1;_;;;;;;0.0-6.0-0.163;;NA;0;;img2/tools/2.jpg;NA;266066;NA;664;image-keyboard-response;;NA;japanese
666;18;condition1;_;;;;;;0.0-6.0-1.163;;NA;1;;+;NA;266377;NA;665;html-keyboard-response;;NA;japanese
667;18;condition1;_;;;;;;0.0-6.0-2.163;;NA;2;;img2/tools/9.jpg;NA;266594;NA;666;image-keyboard-response;;NA;japanese
668;18;condition1;D_T;D;O;;;;0.0-6.0-3.163;d;307;3;T;Press S if the two images were the same;NA;NA;NA;NA;;;NA;japanese
669;18;condition1;_;;;;;;0.0-6.0-0.164;;NA;0;;img2/faces/12.jpg;NA;267121;NA;668;image-keyboard-response;;NA;japanese
670;18;condition1;_;;;;;;0.0-6.0-1.164;;NA;1;;+;NA;267429;NA;669;html-keyboard-response;;NA;japanese
671;18;condition1;_;;;;;;0.0-6.0-2.164;;NA;2;;img2/faces/12.jpg;NA;267645;NA;670;image-keyboard-response;;NA;japanese
672;18;condition1;S_T;S;H;;;;0.0-6.0-3.164;s;377;3;T;Press S if the two images were the same;NA;NA;NA;NA;;;NA;japanese
673;18;condition1;_;;;;;;0.0-6.0-0.165;;NA;0;;img2/jap/14.jpg;NA;268230;NA;672;image-keyboard-response;;NA;japanese
674;18;condition1;_;;;;;;0.0-6.0-1.165;;NA;1;;+;NA;268538;NA;673;html-keyboard-response;;NA;japanese
675;18;condition1;_;;;;;;0.0-6.0-2.165;;NA;2;;img2/Mjap/14.jpg;NA;268741;NA;674;image-keyboard-response;;NA;japanese
676;18;condition1;S_M;S;J;;;;0.0-6.0-3.165;d;417;3;M;Press S if the two images were the same;NA;NA;NA;NA;;;NA;japanese
677;18;condition1;_;;;;;;0.0-6.0-0.166;;NA;0;;img2/tools/4.jpg;NA;269359;NA;676;image-keyboard-response;;NA;japanese
678;18;condition1;_;;;;;;0.0-6.0-1.166;;NA;1;;+;NA;269670;NA;677;html-keyboard-response;;NA;japanese
679;18;condition1;_;;;;;;0.0-6.0-2.166;;NA;2;;img2/tools/12.jpg;NA;269889;NA;678;image-keyboard-response;;NA;japanese
680;18;condition1;D_T;D;O;;;;0.0-6.0-3.166;d;397;3;T;Press S if the two images were the same;NA;NA;NA;NA;;;NA;japanese
681;18;condition1;_;;;;;;0.0-6.0-0.167;;NA;0;;img2/tools/9.jpg;NA;270505;NA;680;image-keyboard-response;;NA;japanese
682;18;condition1;_;;;;;;0.0-6.0-1.167;;NA;1;;+;NA;270816;NA;681;html-keyboard-response;;NA;japanese
683;18;condition1;_;;;;;;0.0-6.0-2.167;;NA;2;;img2/Mtools/9.jpg;NA;271031;NA;682;image-keyboard-response;;NA;japanese
684;18;condition1;S_M;S;O;;;;0.0-6.0-3.167;d;431;3;M;Press S if the two images were the same;NA;NA;NA;NA;;;NA;japanese
685;18;condition1;_;;;;;;0.0-6.0-0.168;;NA;0;;img2/faces/14.jpg;NA;271674;NA;684;image-keyboard-response;;NA;japanese
686;18;condition1;_;;;;;;0.0-6.0-1.168;;NA;1;;+;NA;271982;NA;685;html-keyboard-response;;NA;japanese
687;18;condition1;_;;;;;;0.0-6.0-2.168;;NA;2;;img2/Mfaces/14.jpg;NA;272198;NA;686;image-keyboard-response;;NA;japanese
688;18;condition1;S_M;S;H;;;;0.0-6.0-3.168;d;415;3;M;Press S if the two images were the same;NA;NA;NA;NA;;;NA;japanese
689;18;condition1;_;;;;;;0.0-6.0-0.169;;NA;0;;img2/jap/5.jpg;NA;272832;NA;688;image-keyboard-response;;NA;japanese
690;18;condition1;_;;;;;;0.0-6.0-1.169;;NA;1;;+;NA;273141;NA;689;html-keyboard-response;;NA;japanese
691;18;condition1;_;;;;;;0.0-6.0-2.169;;NA;2;;img2/jap/12.jpg;NA;273358;NA;690;image-keyboard-response;;NA;japanese
692;18;condition1;D_T;D;J;;;;0.0-6.0-3.169;d;383;3;T;Press S if the two images were the same;NA;NA;NA;NA;;;NA;japanese
693;18;condition1;_;;;;;;0.0-6.0-0.170;;NA;0;;img2/tools/4.jpg;NA;273962;NA;692;image-keyboard-response;;NA;japanese
694;18;condition1;_;;;;;;0.0-6.0-1.170;;NA;1;;+;NA;274268;NA;693;html-keyboard-response;;NA;japanese
695;18;condition1;_;;;;;;0.0-6.0-2.170;;NA;2;;img2/Mtools/4.jpg;NA;274481;NA;694;image-keyboard-response;;NA;japanese
696;18;condition1;S_M;S;O;;;;0.0-6.0-3.170;d;444;3;M;Press S if the two images were the same;NA;NA;NA;NA;;;NA;japanese
697;18;condition1;_;;;;;;0.0-6.0-0.171;;NA;0;;img2/false/2.jpg;NA;275143;NA;696;image-keyboard-response;;NA;japanese
698;18;condition1;_;;;;;;0.0-6.0-1.171;;NA;1;;+;NA;275466;NA;697;html-keyboard-response;;NA;japanese
699;18;condition1;_;;;;;;0.0-6.0-2.171;;NA;2;;img2/false/2.jpg;NA;275681;NA;698;image-keyboard-response;;NA;japanese
700;18;condition1;S_T;S;M;;;;0.0-6.0-3.171;s;495;3;T;Press S if the two images were the same;NA;NA;NA;NA;;;NA;japanese
701;18;condition1;_;;;;;;0.0-6.0-0.172;;NA;0;;img2/faces/14.jpg;NA;276402;NA;700;image-keyboard-response;;NA;japanese
702;18;condition1;_;;;;;;0.0-6.0-1.172;;NA;1;;+;NA;276712;NA;701;html-keyboard-response;;NA;japanese
703;18;condition1;_;;;;;;0.0-6.0-2.172;;NA;2;;img2/faces/14.jpg;NA;276925;NA;702;image-keyboard-response;;NA;japanese
704;18;condition1;S_T;S;H;;;;0.0-6.0-3.172;s;313;3;T;Press S if the two images were the same;NA;NA;NA;NA;;;NA;japanese
705;18;condition1;_;;;;;;0.0-6.0-0.173;;NA;0;;img2/faces/14.jpg;NA;277447;NA;704;image-keyboard-response;;NA;japanese
706;18;condition1;_;;;;;;0.0-6.0-1.173;;NA;1;;+;NA;277758;NA;705;html-keyboard-response;;NA;japanese
707;18;condition1;_;;;;;;0.0-6.0-2.173;;NA;2;;img2/faces/13.jpg;NA;277961;NA;706;image-keyboard-response;;NA;japanese
708;18;condition1;D_T;D;H;;;;0.0-6.0-3.173;d;990;3;T;Press S if the two images were the same;NA;NA;NA;NA;;;NA;japanese
709;18;condition1;_;;;;;;0.0-6.0-0.174;;NA;0;;img2/Mfalse/6.jpg;NA;279158;NA;708;image-keyboard-response;;NA;japanese
710;18;condition1;_;;;;;;0.0-6.0-1.174;;NA;1;;+;NA;279467;NA;709;html-keyboard-response;;NA;japanese
711;18;condition1;_;;;;;;0.0-6.0-2.174;;NA;2;;img2/Mfalse/14.jpg;NA;279682;NA;710;image-keyboard-response;;NA;japanese
712;18;condition1;D_M;D;M;;;;0.0-6.0-3.174;d;734;3;M;Press S if the two images were the same;NA;NA;NA;NA;;;NA;japanese
713;18;condition1;_;;;;;;0.0-6.0-0.175;;NA;0;;img2/Mfrench/3.jpg;NA;280635;NA;712;image-keyboard-response;;NA;japanese
714;18;condition1;_;;;;;;0.0-6.0-1.175;;NA;1;;+;NA;280947;NA;713;html-keyboard-response;;NA;japanese
715;18;condition1;_;;;;;;0.0-6.0-2.175;;NA;2;;img2/Mfrench/13.jpg;NA;281169;NA;714;image-keyboard-response;;NA;japanese
716;18;condition1;D_M;D;R;;;;0.0-6.0-3.175;d;886;3;M;Press S if the two images were the same;NA;NA;NA;NA;;;NA;japanese
717;18;condition1;_;;;;;;0.0-6.0-0.176;;NA;0;;img2/faces/12.jpg;NA;282268;NA;716;image-keyboard-response;;NA;japanese
718;18;condition1;_;;;;;;0.0-6.0-1.176;;NA;1;;+;NA;282577;NA;717;html-keyboard-response;;NA;japanese
719;18;condition1;_;;;;;;0.0-6.0-2.176;;NA;2;;img2/faces/8.jpg;NA;282792;NA;718;image-keyboard-response;;NA;japanese
720;18;condition1;D_T;D;H;;;;0.0-6.0-3.176;d;693;3;T;Press S if the two images were the same;NA;NA;NA;NA;;;NA;japanese
721;18;condition1;_;;;;;;0.0-6.0-0.177;;NA;0;;img2/french/11.jpg;NA;283704;NA;720;image-keyboard-response;;NA;japanese
722;18;condition1;_;;;;;;0.0-6.0-1.177;;NA;1;;+;NA;284013;NA;721;html-keyboard-response;;NA;japanese
723;18;condition1;_;;;;;;0.0-6.0-2.177;;NA;2;;img2/french/11.jpg;NA;284229;NA;722;image-keyboard-response;;NA;japanese
724;18;condition1;S_T;S;R;;;;0.0-6.0-3.177;s;249;3;T;Press S if the two images were the same;NA;NA;NA;NA;;;NA;japanese
725;18;condition1;_;;;;;;0.0-6.0-0.178;;NA;0;;img2/faces/5.jpg;NA;284704;NA;724;image-keyboard-response;;NA;japanese
726;18;condition1;_;;;;;;0.0-6.0-1.178;;NA;1;;+;NA;285014;NA;725;html-keyboard-response;;NA;japanese
727;18;condition1;_;;;;;;0.0-6.0-2.178;;NA;2;;img2/faces/12.jpg;NA;285228;NA;726;image-keyboard-response;;NA;japanese
728;18;condition1;D_T;D;H;;;;0.0-6.0-3.178;d;794;3;T;Press S if the two images were the same;NA;NA;NA;NA;;;NA;japanese
729;18;condition1;_;;;;;;0.0-6.0-0.179;;NA;0;;img2/faces/4.jpg;NA;286234;NA;728;image-keyboard-response;;NA;japanese
730;18;condition1;_;;;;;;0.0-6.0-1.179;;NA;1;;+;NA;286541;NA;729;html-keyboard-response;;NA;japanese
731;18;condition1;_;;;;;;0.0-6.0-2.179;;NA;2;;img2/Mfaces/4.jpg;NA;286761;NA;730;image-keyboard-response;;NA;japanese
732;18;condition1;S_M;S;H;;;;0.0-6.0-3.179;d;564;3;M;Press S if the two images were the same;NA;NA;NA;NA;;;NA;japanese
733;18;condition1;_;;;;;;0.0-6.0-0.180;;NA;0;;img2/french/6.jpg;NA;287542;NA;732;image-keyboard-response;;NA;japanese
734;18;condition1;_;;;;;;0.0-6.0-1.180;;NA;1;;+;NA;287850;NA;733;html-keyboard-response;;NA;japanese
735;18;condition1;_;;;;;;0.0-6.0-2.180;;NA;2;;img2/french/14.jpg;NA;288051;NA;734;image-keyboard-response;;NA;japanese
736;18;condition1;D_T;D;R;;;;0.0-6.0-3.180;d;1066;3;T;Press S if the two images were the same;NA;NA;NA;NA;;;NA;japanese
737;18;condition1;_;;;;;;0.0-6.0-0.181;;NA;0;;img2/jap/13.jpg;NA;289324;NA;736;image-keyboard-response;;NA;japanese
738;18;condition1;_;;;;;;0.0-6.0-1.181;;NA;1;;+;NA;289631;NA;737;html-keyboard-response;;NA;japanese
739;18;condition1;_;;;;;;0.0-6.0-2.181;;NA;2;;img2/jap/11.jpg;NA;289845;NA;738;image-keyboard-response;;NA;japanese
740;18;condition1;D_T;D;J;;;;0.0-6.0-3.181;d;481;3;T;Press S if the two images were the same;NA;NA;NA;NA;;;NA;japanese
741;18;condition1;_;;;;;;0.0-6.0-0.182;;NA;0;;img2/tools/12.jpg;NA;290537;NA;740;image-keyboard-response;;NA;japanese
742;18;condition1;_;;;;;;0.0-6.0-1.182;;NA;1;;+;NA;290842;NA;741;html-keyboard-response;;NA;japanese
743;18;condition1;_;;;;;;0.0-6.0-2.182;;NA;2;;img2/tools/12.jpg;NA;291058;NA;742;image-keyboard-response;;NA;japanese
744;18;condition1;S_T;S;O;;;;0.0-6.0-3.182;s;317;3;T;Press S if the two images were the same;NA;NA;NA;NA;;;NA;japanese
745;18;condition1;_;;;;;;0.0-6.0-0.183;;NA;0;;img2/jap/8.jpg;NA;291580;NA;744;image-keyboard-response;;NA;japanese
746;18;condition1;_;;;;;;0.0-6.0-1.183;;NA;1;;+;NA;291889;NA;745;html-keyboard-response;;NA;japanese
747;18;condition1;_;;;;;;0.0-6.0-2.183;;NA;2;;img2/Mjap/8.jpg;NA;292104;NA;746;image-keyboard-response;;NA;japanese
748;18;condition1;S_M;S;J;;;;0.0-6.0-3.183;d;1366;3;M;Press S if the two images were the same;NA;NA;NA;NA;;;NA;japanese
749;18;condition1;_;;;;;;0.0-6.0-0.184;;NA;0;;img2/faces/8.jpg;NA;293681;NA;748;image-keyboard-response;;NA;japanese
750;18;condition1;_;;;;;;0.0-6.0-1.184;;NA;1;;+;NA;293991;NA;749;html-keyboard-response;;NA;japanese
751;18;condition1;_;;;;;;0.0-6.0-2.184;;NA;2;;img2/faces/8.jpg;NA;294208;NA;750;image-keyboard-response;;NA;japanese
752;18;condition1;S_T;S;H;;;;0.0-6.0-3.184;s;326;3;T;Press S if the two images were the same;NA;NA;NA;NA;;;NA;japanese
753;18;condition1;_;;;;;;0.0-6.0-0.185;;NA;0;;img2/faces/8.jpg;NA;294745;NA;752;image-keyboard-response;;NA;japanese
754;18;condition1;_;;;;;;0.0-6.0-1.185;;NA;1;;+;NA;295066;NA;753;html-keyboard-response;;NA;japanese
755;18;condition1;_;;;;;;0.0-6.0-2.185;;NA;2;;img2/faces/9.jpg;NA;295269;NA;754;image-keyboard-response;;NA;japanese
756;18;condition1;D_T;D;H;;;;0.0-6.0-3.185;d;1225;3;T;Press S if the two images were the same;NA;NA;NA;NA;;;NA;japanese
757;18;condition1;_;;;;;;0.0-6.0-0.186;;NA;0;;img2/french/10.jpg;NA;296700;NA;756;image-keyboard-response;;NA;japanese
758;18;condition1;_;;;;;;0.0-6.0-1.186;;NA;1;;+;NA;297006;NA;757;html-keyboard-response;;NA;japanese
759;18;condition1;_;;;;;;0.0-6.0-2.186;;NA;2;;img2/french/10.jpg;NA;297222;NA;758;image-keyboard-response;;NA;japanese
760;18;condition1;S_T;S;R;;;;0.0-6.0-3.186;s;385;3;T;Press S if the two images were the same;NA;NA;NA;NA;;;NA;japanese
761;18;condition1;_;;;;;;0.0-6.0-0.187;;NA;0;;img2/french/1.jpg;NA;297822;NA;760;image-keyboard-response;;NA;japanese
762;18;condition1;_;;;;;;0.0-6.0-1.187;;NA;1;;+;NA;298129;NA;761;html-keyboard-response;;NA;japanese
763;18;condition1;_;;;;;;0.0-6.0-2.187;;NA;2;;img2/french/1.jpg;NA;298342;NA;762;image-keyboard-response;;NA;japanese
764;18;condition1;S_T;S;R;;;;0.0-6.0-3.187;s;267;3;T;Press S if the two images were the same;NA;NA;NA;NA;;;NA;japanese
765;18;condition1;_;;;;;;0.0-6.0-0.188;;NA;0;;img2/Mfrench/5.jpg;NA;298818;NA;764;image-keyboard-response;;NA;japanese
766;18;condition1;_;;;;;;0.0-6.0-1.188;;NA;1;;+;NA;299125;NA;765;html-keyboard-response;;NA;japanese
767;18;condition1;_;;;;;;0.0-6.0-2.188;;NA;2;;img2/Mfrench/12.jpg;NA;299340;NA;766;image-keyboard-response;;NA;japanese
768;18;condition1;D_M;D;R;;;;0.0-6.0-3.188;d;355;3;M;Press S if the two images were the same;NA;NA;NA;NA;;;NA;japanese
769;18;condition1;_;;;;;;0.0-6.0-0.189;;NA;0;;img2/french/14.jpg;NA;299908;NA;768;image-keyboard-response;;NA;japanese
770;18;condition1;_;;;;;;0.0-6.0-1.189;;NA;1;;+;NA;300214;NA;769;html-keyboard-response;;NA;japanese
771;18;condition1;_;;;;;;0.0-6.0-2.189;;NA;2;;img2/french/14.jpg;NA;300428;NA;770;image-keyboard-response;;NA;japanese
772;18;condition1;S_T;S;R;;;;0.0-6.0-3.189;s;498;3;T;Press S if the two images were the same;NA;NA;NA;NA;;;NA;japanese
773;18;condition1;_;;;;;;0.0-6.0-0.190;;NA;0;;img2/faces/9.jpg;NA;301146;NA;772;image-keyboard-response;;NA;japanese
774;18;condition1;_;;;;;;0.0-6.0-1.190;;NA;1;;+;NA;301452;NA;773;html-keyboard-response;;NA;japanese
775;18;condition1;_;;;;;;0.0-6.0-2.190;;NA;2;;img2/faces/12.jpg;NA;301666;NA;774;image-keyboard-response;;NA;japanese
776;18;condition1;D_T;D;H;;;;0.0-6.0-3.190;d;413;3;T;Press S if the two images were the same;NA;NA;NA;NA;;;NA;japanese
777;18;condition1;_;;;;;;0.0-6.0-0.191;;NA;0;;img2/Mtools/7.jpg;NA;302296;NA;776;image-keyboard-response;;NA;japanese
778;18;condition1;_;;;;;;0.0-6.0-1.191;;NA;1;;+;NA;302605;NA;777;html-keyboard-response;;NA;japanese
779;18;condition1;_;;;;;;0.0-6.0-2.191;;NA;2;;img2/Mtools/13.jpg;NA;302821;NA;778;image-keyboard-response;;NA;japanese
780;18;condition1;D_M;D;O;;;;0.0-6.0-3.191;d;553;3;M;Press S if the two images were the same;NA;NA;NA;NA;;;NA;japanese
781;18;condition1;_;;;;;;0.0-6.0-0.192;;NA;0;;img2/tools/7.jpg;NA;303592;NA;780;image-keyboard-response;;NA;japanese
782;18;condition1;_;;;;;;0.0-6.0-1.192;;NA;1;;+;NA;303913;NA;781;html-keyboard-response;;NA;japanese
783;18;condition1;_;;;;;;0.0-6.0-2.192;;NA;2;;img2/Mtools/7.jpg;NA;304129;NA;782;image-keyboard-response;;NA;japanese
784;18;condition1;S_M;S;O;;;;0.0-6.0-3.192;d;437;3;M;Press S if the two images were the same;NA;NA;NA;NA;;;NA;japanese
785;18;condition1;_;;;;;;0.0-6.0-0.193;;NA;0;;img2/french/3.jpg;NA;304775;NA;784;image-keyboard-response;;NA;japanese
786;18;condition1;_;;;;;;0.0-6.0-1.193;;NA;1;;+;NA;305081;NA;785;html-keyboard-response;;NA;japanese
787;18;condition1;_;;;;;;0.0-6.0-2.193;;NA;2;;img2/Mfrench/3.jpg;NA;305295;NA;786;image-keyboard-response;;NA;japanese
788;18;condition1;S_M;S;R;;;;0.0-6.0-3.193;d;342;3;M;Press S if the two images were the same;NA;NA;NA;NA;;;NA;japanese
789;18;condition1;_;;;;;;0.0-6.0-0.194;;NA;0;;img2/french/4.jpg;NA;305851;NA;788;image-keyboard-response;;NA;japanese
790;18;condition1;_;;;;;;0.0-6.0-1.194;;NA;1;;+;NA;306161;NA;789;html-keyboard-response;;NA;japanese
791;18;condition1;_;;;;;;0.0-6.0-2.194;;NA;2;;img2/french/12.jpg;NA;306375;NA;790;image-keyboard-response;;NA;japanese
792;18;condition1;D_T;D;R;;;;0.0-6.0-3.194;d;391;3;T;Press S if the two images were the same;NA;NA;NA;NA;;;NA;japanese
793;18;condition1;_;;;;;;0.0-6.0-0.195;;NA;0;;img2/jap/6.jpg;NA;306975;NA;792;image-keyboard-response;;NA;japanese
794;18;condition1;_;;;;;;0.0-6.0-1.195;;NA;1;;+;NA;307283;NA;793;html-keyboard-response;;NA;japanese
795;18;condition1;_;;;;;;0.0-6.0-2.195;;NA;2;;img2/Mjap/6.jpg;NA;307497;NA;794;image-keyboard-response;;NA;japanese
796;18;condition1;S_M;S;J;;;;0.0-6.0-3.195;s;397;3;M;Press S if the two images were the same;NA;NA;NA;NA;;;NA;japanese
797;18;condition1;_;;;;;;0.0-6.0-0.196;;NA;0;;img2/french/7.jpg;NA;308111;NA;796;image-keyboard-response;;NA;japanese
798;18;condition1;_;;;;;;0.0-6.0-1.196;;NA;1;;+;NA;308432;NA;797;html-keyboard-response;;NA;japanese
799;18;condition1;_;;;;;;0.0-6.0-2.196;;NA;2;;img2/french/7.jpg;NA;308646;NA;798;image-keyboard-response;;NA;japanese
800;18;condition1;S_T;S;R;;;;0.0-6.0-3.196;s;938;3;T;Press S if the two images were the same;NA;NA;NA;NA;;;NA;japanese
801;18;condition1;_;;;;;;0.0-6.0-0.197;;NA;0;;img2/false/8.jpg;NA;309795;NA;800;image-keyboard-response;;NA;japanese
802;18;condition1;_;;;;;;0.0-6.0-1.197;;NA;1;;+;NA;310108;NA;801;html-keyboard-response;;NA;japanese
803;18;condition1;_;;;;;;0.0-6.0-2.197;;NA;2;;img2/false/8.jpg;NA;310321;NA;802;image-keyboard-response;;NA;japanese
804;18;condition1;S_T;S;M;;;;0.0-6.0-3.197;s;652;3;T;Press S if the two images were the same;NA;NA;NA;NA;;;NA;japanese
805;18;condition1;_;;;;;;0.0-6.0-0.198;;NA;0;;img2/Mtools/1.jpg;NA;311184;NA;804;image-keyboard-response;;NA;japanese
806;18;condition1;_;;;;;;0.0-6.0-1.198;;NA;1;;+;NA;311506;NA;805;html-keyboard-response;;NA;japanese
807;18;condition1;_;;;;;;0.0-6.0-2.198;;NA;2;;img2/Mtools/7.jpg;NA;311723;NA;806;image-keyboard-response;;NA;japanese
808;18;condition1;D_M;D;O;;;;0.0-6.0-3.198;d;421;3;M;Press S if the two images were the same;NA;NA;NA;NA;;;NA;japanese
809;18;condition1;_;;;;;;0.0-6.0-0.199;;NA;0;;img2/tools/10.jpg;NA;312351;NA;808;image-keyboard-response;;NA;japanese
810;18;condition1;_;;;;;;0.0-6.0-1.199;;NA;1;;+;NA;312654;NA;809;html-keyboard-response;;NA;japanese
811;18;condition1;_;;;;;;0.0-6.0-2.199;;NA;2;;img2/tools/12.jpg;NA;312869;NA;810;image-keyboard-response;;NA;japanese
812;18;condition1;D_T;D;O;;;;0.0-6.0-3.199;d;408;3;T;Press S if the two images were the same;NA;NA;NA;NA;;;NA;japanese
813;18;condition1;_;;;;;;0.0-6.0-0.200;;NA;0;;img2/faces/9.jpg;NA;313497;NA;812;image-keyboard-response;;NA;japanese
814;18;condition1;_;;;;;;0.0-6.0-1.200;;NA;1;;+;NA;313818;NA;813;html-keyboard-response;;NA;japanese
815;18;condition1;_;;;;;;0.0-6.0-2.200;;NA;2;;img2/Mfaces/9.jpg;NA;314035;NA;814;image-keyboard-response;;NA;japanese
816;18;condition1;S_M;S;H;;;;0.0-6.0-3.200;d;434;3;M;Press S if the two images were the same;NA;NA;NA;NA;;;NA;japanese
817;18;condition1;_;;;;;;0.0-6.0-0.201;;NA;0;;img2/jap/2.jpg;NA;314679;NA;816;image-keyboard-response;;NA;japanese
818;18;condition1;_;;;;;;0.0-6.0-1.201;;NA;1;;+;NA;314989;NA;817;html-keyboard-response;;NA;japanese
819;18;condition1;_;;;;;;0.0-6.0-2.201;;NA;2;;img2/jap/2.jpg;NA;315206;NA;818;image-keyboard-response;;NA;japanese
820;18;condition1;S_T;S;J;;;;0.0-6.0-3.201;s;296;3;T;Press S if the two images were the same;NA;NA;NA;NA;;;NA;japanese
821;18;condition1;_;;;;;;0.0-6.0-0.202;;NA;0;;img2/tools/8.jpg;NA;315713;NA;820;image-keyboard-response;;NA;japanese
822;18;condition1;_;;;;;;0.0-6.0-1.202;;NA;1;;+;NA;316020;NA;821;html-keyboard-response;;NA;japanese
823;18;condition1;_;;;;;;0.0-6.0-2.202;;NA;2;;img2/tools/9.jpg;NA;316234;NA;822;image-keyboard-response;;NA;japanese
824;18;condition1;D_T;D;O;;;;0.0-6.0-3.202;d;403;3;T;Press S if the two images were the same;NA;NA;NA;NA;;;NA;japanese
825;18;condition1;_;;;;;;0.0-6.0-0.203;;NA;0;;img2/faces/11.jpg;NA;316848;NA;824;image-keyboard-response;;NA;japanese
826;18;condition1;_;;;;;;0.0-6.0-1.203;;NA;1;;+;NA;317158;NA;825;html-keyboard-response;;NA;japanese
827;18;condition1;_;;;;;;0.0-6.0-2.203;;NA;2;;img2/faces/11.jpg;NA;317373;NA;826;image-keyboard-response;;NA;japanese
828;18;condition1;S_T;S;H;;;;0.0-6.0-3.203;s;377;3;T;Press S if the two images were the same;NA;NA;NA;NA;;;NA;japanese
829;18;condition1;_;;;;;;0.0-6.0-0.204;;NA;0;;img2/Mjap/8.jpg;NA;317957;NA;828;image-keyboard-response;;NA;japanese
830;18;condition1;_;;;;;;0.0-6.0-1.204;;NA;1;;+;NA;318264;NA;829;html-keyboard-response;;NA;japanese
831;18;condition1;_;;;;;;0.0-6.0-2.204;;NA;2;;img2/Mjap/9.jpg;NA;318480;NA;830;image-keyboard-response;;NA;japanese
832;18;condition1;D_M;D;J;;;;0.0-6.0-3.204;d;501;3;M;Press S if the two images were the same;NA;NA;NA;NA;;;NA;japanese
833;18;condition1;_;;;;;;0.0-6.0-0.205;;NA;0;;img2/Mfalse/11.jpg;NA;319197;NA;832;image-keyboard-response;;NA;japanese
834;18;condition1;_;;;;;;0.0-6.0-1.205;;NA;1;;+;NA;319503;NA;833;html-keyboard-response;;NA;japanese
835;18;condition1;_;;;;;;0.0-6.0-2.205;;NA;2;;img2/Mfalse/6.jpg;NA;319720;NA;834;image-keyboard-response;;NA;japanese
836;18;condition1;D_M;D;M;;;;0.0-6.0-3.205;d;430;3;M;Press S if the two images were the same;NA;NA;NA;NA;;;NA;japanese
837;18;condition1;_;;;;;;0.0-6.0-0.206;;NA;0;;img2/tools/5.jpg;NA;320358;NA;836;image-keyboard-response;;NA;japanese
838;18;condition1;_;;;;;;0.0-6.0-1.206;;NA;1;;+;NA;320670;NA;837;html-keyboard-response;;NA;japanese
839;18;condition1;_;;;;;;0.0-6.0-2.206;;NA;2;;img2/tools/12.jpg;NA;320888;NA;838;image-keyboard-response;;NA;japanese
840;18;condition1;D_T;D;O;;;;0.0-6.0-3.206;d;445;3;T;Press S if the two images were the same;NA;NA;NA;NA;;;NA;japanese
841;18;condition1;_;;;;;;0.0-6.0-0.207;;NA;0;;img2/Mtools/9.jpg;NA;321550;NA;840;image-keyboard-response;;NA;japanese
842;18;condition1;_;;;;;;0.0-6.0-1.207;;NA;1;;+;NA;321858;NA;841;html-keyboard-response;;NA;japanese
843;18;condition1;_;;;;;;0.0-6.0-2.207;;NA;2;;img2/Mtools/12.jpg;NA;322061;NA;842;image-keyboard-response;;NA;japanese
844;18;condition1;D_M;D;O;;;;0.0-6.0-3.207;d;466;3;M;Press S if the two images were the same;NA;NA;NA;NA;;;NA;japanese
845;18;condition1;_;;;;;;0.0-6.0-0.208;;NA;0;;img2/faces/12.jpg;NA;322741;NA;844;image-keyboard-response;;NA;japanese
846;18;condition1;_;;;;;;0.0-6.0-1.208;;NA;1;;+;NA;323050;NA;845;html-keyboard-response;;NA;japanese
847;18;condition1;_;;;;;;0.0-6.0-2.208;;NA;2;;img2/Mfaces/12.jpg;NA;323266;NA;846;image-keyboard-response;;NA;japanese
848;18;condition1;S_M;S;H;;;;0.0-6.0-3.208;s;620;3;M;Press S if the two images were the same;NA;NA;NA;NA;;;NA;japanese
849;18;condition1;_;;;;;;0.0-6.0-0.209;;NA;0;;img2/faces/2.jpg;NA;324092;NA;848;image-keyboard-response;;NA;japanese
850;18;condition1;_;;;;;;0.0-6.0-1.209;;NA;1;;+;NA;324400;NA;849;html-keyboard-response;;NA;japanese
851;18;condition1;_;;;;;;0.0-6.0-2.209;;NA;2;;img2/faces/9.jpg;NA;324613;NA;850;image-keyboard-response;;NA;japanese
852;18;condition1;D_T;D;H;;;;0.0-6.0-3.209;d;568;3;T;Press S if the two images were the same;NA;NA;NA;NA;;;NA;japanese
853;18;condition1;_;;;;;;0.0-6.0-0.210;;NA;0;;img2/french/5.jpg;NA;325398;NA;852;image-keyboard-response;;NA;japanese
854;18;condition1;_;;;;;;0.0-6.0-1.210;;NA;1;;+;NA;325708;NA;853;html-keyboard-response;;NA;japanese
855;18;condition1;_;;;;;;0.0-6.0-2.210;;NA;2;;img2/french/12.jpg;NA;325923;NA;854;image-keyboard-response;;NA;japanese
856;18;condition1;D_T;D;R;;;;0.0-6.0-3.210;d;418;3;T;Press S if the two images were the same;NA;NA;NA;NA;;;NA;japanese
857;18;condition1;_;;;;;;0.0-6.0-0.211;;NA;0;;img2/Mfaces/11.jpg;NA;326556;NA;856;image-keyboard-response;;NA;japanese
858;18;condition1;_;;;;;;0.0-6.0-1.211;;NA;1;;+;NA;326867;NA;857;html-keyboard-response;;NA;japanese
859;18;condition1;_;;;;;;0.0-6.0-2.211;;NA;2;;img2/Mfaces/6.jpg;NA;327083;NA;858;image-keyboard-response;;NA;japanese
860;18;condition1;D_M;D;H;;;;0.0-6.0-3.211;d;346;3;M;Press S if the two images were the same;NA;NA;NA;NA;;;NA;japanese
861;18;condition1;_;;;;;;0.0-6.0-0.212;;NA;0;;img2/tools/11.jpg;NA;327647;NA;860;image-keyboard-response;;NA;japanese
862;18;condition1;_;;;;;;0.0-6.0-1.212;;NA;1;;+;NA;327969;NA;861;html-keyboard-response;;NA;japanese
863;18;condition1;_;;;;;;0.0-6.0-2.212;;NA;2;;img2/tools/11.jpg;NA;328182;NA;862;image-keyboard-response;;NA;japanese
864;18;condition1;S_T;S;O;;;;0.0-6.0-3.212;d;336;3;T;Press S if the two images were the same;NA;NA;NA;NA;;;NA;japanese
865;18;condition1;_;;;;;;0.0-6.0-0.213;;NA;0;;img2/jap/14.jpg;NA;328735;NA;864;image-keyboard-response;;NA;japanese
866;18;condition1;_;;;;;;0.0-6.0-1.213;;NA;1;;+;NA;329041;NA;865;html-keyboard-response;;NA;japanese
867;18;condition1;_;;;;;;0.0-6.0-2.213;;NA;2;;img2/jap/13.jpg;NA;329255;NA;866;image-keyboard-response;;NA;japanese
868;18;condition1;D_T;D;J;;;;0.0-6.0-3.213;s;598;3;T;Press S if the two images were the same;NA;NA;NA;NA;;;NA;japanese
869;18;condition1;_;;;;;;0.0-6.0-0.214;;NA;0;;img2/Mfaces/12.jpg;NA;330074;NA;868;image-keyboard-response;;NA;japanese
870;18;condition1;_;;;;;;0.0-6.0-1.214;;NA;1;;+;NA;330382;NA;869;html-keyboard-response;;NA;japanese
871;18;condition1;_;;;;;;0.0-6.0-2.214;;NA;2;;img2/Mfaces/8.jpg;NA;330598;NA;870;image-keyboard-response;;NA;japanese
872;18;condition1;D_M;D;H;;;;0.0-6.0-3.214;d;888;3;M;Press S if the two images were the same;NA;NA;NA;NA;;;NA;japanese
873;18;condition1;_;;;;;;0.0-6.0-0.215;;NA;0;;img2/tools/2.jpg;NA;331704;NA;872;image-keyboard-response;;NA;japanese
874;18;condition1;_;;;;;;0.0-6.0-1.215;;NA;1;;+;NA;332024;NA;873;html-keyboard-response;;NA;japanese
875;18;condition1;_;;;;;;0.0-6.0-2.215;;NA;2;;img2/Mtools/2.jpg;NA;332239;NA;874;image-keyboard-response;;NA;japanese
876;18;condition1;S_M;S;O;;;;0.0-6.0-3.215;s;772;3;M;Press S if the two images were the same;NA;NA;NA;NA;;;NA;japanese
877;18;condition1;_;;;;;;0.0-6.0-0.216;;NA;0;;img2/tools/9.jpg;NA;333220;NA;876;image-keyboard-response;;NA;japanese
878;18;condition1;_;;;;;;0.0-6.0-1.216;;NA;1;;+;NA;333524;NA;877;html-keyboard-response;;NA;japanese
879;18;condition1;_;;;;;;0.0-6.0-2.216;;NA;2;;img2/tools/9.jpg;NA;333739;NA;878;image-keyboard-response;;NA;japanese
880;18;condition1;S_T;S;O;;;;0.0-6.0-3.216;d;1019;3;T;Press S if the two images were the same;NA;NA;NA;NA;;;NA;japanese
881;18;condition1;_;;;;;;0.0-6.0-0.217;;NA;0;;img2/Mjap/9.jpg;NA;334969;NA;880;image-keyboard-response;;NA;japanese
882;18;condition1;_;;;;;;0.0-6.0-1.217;;NA;1;;+;NA;335277;NA;881;html-keyboard-response;;NA;japanese
883;18;condition1;_;;;;;;0.0-6.0-2.217;;NA;2;;img2/Mjap/12.jpg;NA;335493;NA;882;image-keyboard-response;;NA;japanese
