"";"workerid";"proliferate.condition";"X0";"X1";"failed_audio";"failed_images";"failed_video";"internal_node_id";"response";"rt";"sequence_id";"same_mirror_normal";"stimulus";"success";"time_elapsed";"timeout";"trial_index";"trial_type";"view_history";"error"
"1";28;"condition1";"";"";"[]";"[]";"[]";"0.0-0.0";"";"";"0";"";"";"True";3780;"False";0;"preload";"";""
"2";28;"condition1";"";"";"";"";"";"0.0-1.0";"";"44702";"1";"";"";"";48483;"";1;"instructions";"[{'page_index': 0, 'viewing_time': 13198}, {'page_index': 1, 'viewing_time': 16455}, {'page_index': 2, 'viewing_time': 12459}, {'page_index': 3, 'viewing_time': 2590}]";""
"3";28;"condition1";"";"";"";"";"";"0.0-2.0-0.0";"";"";"0";"";"img2/tools/2.jpg";"";48704;"";2;"image-keyboard-response";"";""
"4";28;"condition1";"";"";"";"";"";"0.0-2.0-1.0";"";"";"1";"";"+";"";49020;"";3;"html-keyboard-response";"";""
"5";28;"condition1";"";"";"";"";"";"0.0-2.0-2.0";"";"";"2";"";"img2/Mtools/2.jpg";"";49241;"";4;"image-keyboard-response";"";""
"6";28;"condition1";"";"";"";"";"";"0.0-2.0-3.0";"s";"1401";"3";"M";"Press S if the two images were the same, Press D if the two images were different.";"";50642;"";5;"html-keyboard-response";"";""
"7";28;"condition1";"";"";"";"";"";"0.0-3.0";"";"2908";"3";"";"";"";53551;"";6;"instructions";"[{'page_index': 0, 'viewing_time': 2908}]";""
"8";28;"condition1";"";"";"";"";"";"0.0-4.0-0.0";"";"";"0";"";"img2/jap/2.jpg";"";53794;"";7;"image-keyboard-response";"";""
"9";28;"condition1";"";"";"";"";"";"0.0-4.0-1.0";"";"";"1";"";"+";"";54110;"";8;"html-keyboard-response";"";""
"10";28;"condition1";"";"";"";"";"";"0.0-4.0-2.0";"";"";"2";"";"img2/jap/3.jpg";"";54346;"";9;"image-keyboard-response";"";""
"11";28;"condition1";"";"";"";"";"";"0.0-4.0-3.0";"d";"653";"3";"T";"Press S if the two images were the same, Press D if the two images were different.";"";55002;"";10;"html-keyboard-response";"";""
"12";28;"condition1";"";"";"";"";"";"0.0-5.0";"";"2153";"5";"";"";"";57154;"";11;"instructions";"[{'page_index': 0, 'viewing_time': 2153}]";""
"13";28;"condition1";"";"";"";"";"";"0.0-6.0-0.0";"";"";"0";"";"img2/tools/6.jpg";"";57370;"";12;"image-keyboard-response";"";""
"14";28;"condition1";"";"";"";"";"";"0.0-6.0-1.0";"";"";"1";"";"+";"";57679;"";13;"html-keyboard-response";"";""
"15";28;"condition1";"";"";"";"";"";"0.0-6.0-2.0";"";"";"2";"";"img2/tools/6.jpg";"";57891;"";14;"image-keyboard-response";"";""
"16";28;"condition1";"S";"O";"";"";"";"0.0-6.0-3.0";"s";"451";"3";"T";"Press S if the two images were the same, Press D if the two images were different.";"";58342;"";15;"html-keyboard-response";"";""
"17";28;"condition1";"";"";"";"";"";"0.0-6.0-0.1";"";"";"0";"";"img2/Mjap/2.jpg";"";58596;"";16;"image-keyboard-response";"";""
"18";28;"condition1";"";"";"";"";"";"0.0-6.0-1.1";"";"";"1";"";"+";"";58910;"";17;"html-keyboard-response";"";""
"19";28;"condition1";"";"";"";"";"";"0.0-6.0-2.1";"";"";"2";"";"img2/Mjap/8.jpg";"";59163;"";18;"image-keyboard-response";"";""
"20";28;"condition1";"D";"J";"";"";"";"0.0-6.0-3.1";"d";"433";"3";"M";"Press S if the two images were the same, Press D if the two images were different.";"";59597;"";19;"html-keyboard-response";"";""
"21";28;"condition1";"";"";"";"";"";"0.0-6.0-0.2";"";"";"0";"";"img2/Mfaces/13.jpg";"";59824;"";20;"image-keyboard-response";"";""
"22";28;"condition1";"";"";"";"";"";"0.0-6.0-1.2";"";"";"1";"";"+";"";60129;"";21;"html-keyboard-response";"";""
"23";28;"condition1";"";"";"";"";"";"0.0-6.0-2.2";"";"";"2";"";"img2/Mfaces/10.jpg";"";60362;"";22;"image-keyboard-response";"";""
"24";28;"condition1";"D";"H";"";"";"";"0.0-6.0-3.2";"d";"505";"3";"M";"Press S if the two images were the same, Press D if the two images were different.";"";60867;"";23;"html-keyboard-response";"";""
"25";28;"condition1";"";"";"";"";"";"0.0-6.0-0.3";"";"";"0";"";"img2/faces/10.jpg";"";61098;"";24;"image-keyboard-response";"";""
"26";28;"condition1";"";"";"";"";"";"0.0-6.0-1.3";"";"";"1";"";"+";"";61412;"";25;"html-keyboard-response";"";""
"27";28;"condition1";"";"";"";"";"";"0.0-6.0-2.3";"";"";"2";"";"img2/faces/5.jpg";"";61641;"";26;"image-keyboard-response";"";""
"28";28;"condition1";"D";"H";"";"";"";"0.0-6.0-3.3";"d";"422";"3";"T";"Press S if the two images were the same, Press D if the two images were different.";"";62065;"";27;"html-keyboard-response";"";""
"29";28;"condition1";"";"";"";"";"";"0.0-6.0-0.4";"";"";"0";"";"img2/false/6.jpg";"";62288;"";28;"image-keyboard-response";"";""
"30";28;"condition1";"";"";"";"";"";"0.0-6.0-1.4";"";"";"1";"";"+";"";62600;"";29;"html-keyboard-response";"";""
"31";28;"condition1";"";"";"";"";"";"0.0-6.0-2.4";"";"";"2";"";"img2/false/12.jpg";"";62847;"";30;"image-keyboard-response";"";""
"32";28;"condition1";"D";"M";"";"";"";"0.0-6.0-3.4";"d";"332";"3";"T";"Press S if the two images were the same, Press D if the two images were different.";"";63180;"";31;"html-keyboard-response";"";""
"33";28;"condition1";"";"";"";"";"";"0.0-6.0-0.5";"";"";"0";"";"img2/jap/13.jpg";"";63428;"";32;"image-keyboard-response";"";""
"34";28;"condition1";"";"";"";"";"";"0.0-6.0-1.5";"";"";"1";"";"+";"";63734;"";33;"html-keyboard-response";"";""
"35";28;"condition1";"";"";"";"";"";"0.0-6.0-2.5";"";"";"2";"";"img2/Mjap/13.jpg";"";63985;"";34;"image-keyboard-response";"";""
"36";28;"condition1";"S";"J";"";"";"";"0.0-6.0-3.5";"s";"365";"3";"M";"Press S if the two images were the same, Press D if the two images were different.";"";64351;"";35;"html-keyboard-response";"";""
"37";28;"condition1";"";"";"";"";"";"0.0-6.0-0.6";"";"";"0";"";"img2/tools/10.jpg";"";64559;"";36;"image-keyboard-response";"";""
"38";28;"condition1";"";"";"";"";"";"0.0-6.0-1.6";"";"";"1";"";"+";"";64873;"";37;"html-keyboard-response";"";""
"39";28;"condition1";"";"";"";"";"";"0.0-6.0-2.6";"";"";"2";"";"img2/tools/5.jpg";"";65088;"";38;"image-keyboard-response";"";""
"40";28;"condition1";"D";"O";"";"";"";"0.0-6.0-3.6";"d";"399";"3";"T";"Press S if the two images were the same, Press D if the two images were different.";"";65488;"";39;"html-keyboard-response";"";""
"41";28;"condition1";"";"";"";"";"";"0.0-6.0-0.7";"";"";"0";"";"img2/faces/3.jpg";"";65707;"";40;"image-keyboard-response";"";""
"42";28;"condition1";"";"";"";"";"";"0.0-6.0-1.7";"";"";"1";"";"+";"";66021;"";41;"html-keyboard-response";"";""
"43";28;"condition1";"";"";"";"";"";"0.0-6.0-2.7";"";"";"2";"";"img2/Mfaces/3.jpg";"";66239;"";42;"image-keyboard-response";"";""
"44";28;"condition1";"S";"H";"";"";"";"0.0-6.0-3.7";"s";"386";"3";"M";"Press S if the two images were the same, Press D if the two images were different.";"";66626;"";43;"html-keyboard-response";"";""
"45";28;"condition1";"";"";"";"";"";"0.0-6.0-0.8";"";"";"0";"";"img2/french/5.jpg";"";66865;"";44;"image-keyboard-response";"";""
"46";28;"condition1";"";"";"";"";"";"0.0-6.0-1.8";"";"";"1";"";"+";"";67174;"";45;"html-keyboard-response";"";""
"47";28;"condition1";"";"";"";"";"";"0.0-6.0-2.8";"";"";"2";"";"img2/Mfrench/5.jpg";"";67415;"";46;"image-keyboard-response";"";""
"48";28;"condition1";"S";"R";"";"";"";"0.0-6.0-3.8";"s";"693";"3";"M";"Press S if the two images were the same, Press D if the two images were different.";"";68110;"";47;"html-keyboard-response";"";""
"49";28;"condition1";"";"";"";"";"";"0.0-6.0-0.9";"";"";"0";"";"img2/false/5.jpg";"";68357;"";48;"image-keyboard-response";"";""
"50";28;"condition1";"";"";"";"";"";"0.0-6.0-1.9";"";"";"1";"";"+";"";68670;"";49;"html-keyboard-response";"";""
"51";28;"condition1";"";"";"";"";"";"0.0-6.0-2.9";"";"";"2";"";"img2/false/5.jpg";"";68878;"";50;"image-keyboard-response";"";""
"52";28;"condition1";"S";"M";"";"";"";"0.0-6.0-3.9";"s";"508";"3";"T";"Press S if the two images were the same, Press D if the two images were different.";"";69388;"";51;"html-keyboard-response";"";""
"53";28;"condition1";"";"";"";"";"";"0.0-6.0-0.10";"";"";"0";"";"img2/faces/9.jpg";"";69614;"";52;"image-keyboard-response";"";""
"54";28;"condition1";"";"";"";"";"";"0.0-6.0-1.10";"";"";"1";"";"+";"";69915;"";53;"html-keyboard-response";"";""
"55";28;"condition1";"";"";"";"";"";"0.0-6.0-2.10";"";"";"2";"";"img2/Mfaces/9.jpg";"";70134;"";54;"image-keyboard-response";"";""
"56";28;"condition1";"S";"H";"";"";"";"0.0-6.0-3.10";"s";"441";"3";"M";"Press S if the two images were the same, Press D if the two images were different.";"";70575;"";55;"html-keyboard-response";"";""
"57";28;"condition1";"";"";"";"";"";"0.0-6.0-0.11";"";"";"0";"";"img2/Mfalse/12.jpg";"";70817;"";56;"image-keyboard-response";"";""
"58";28;"condition1";"";"";"";"";"";"0.0-6.0-1.11";"";"";"1";"";"+";"";71127;"";57;"html-keyboard-response";"";""
"59";28;"condition1";"";"";"";"";"";"0.0-6.0-2.11";"";"";"2";"";"img2/Mfalse/3.jpg";"";71375;"";58;"image-keyboard-response";"";""
"60";28;"condition1";"D";"M";"";"";"";"0.0-6.0-3.11";"d";"401";"3";"M";"Press S if the two images were the same, Press D if the two images were different.";"";71779;"";59;"html-keyboard-response";"";""
"61";28;"condition1";"";"";"";"";"";"0.0-6.0-0.12";"";"";"0";"";"img2/faces/6.jpg";"";71999;"";60;"image-keyboard-response";"";""
"62";28;"condition1";"";"";"";"";"";"0.0-6.0-1.12";"";"";"1";"";"+";"";72304;"";61;"html-keyboard-response";"";""
"63";28;"condition1";"";"";"";"";"";"0.0-6.0-2.12";"";"";"2";"";"img2/Mfaces/6.jpg";"";72526;"";62;"image-keyboard-response";"";""
"64";28;"condition1";"S";"H";"";"";"";"0.0-6.0-3.12";"s";"514";"3";"M";"Press S if the two images were the same, Press D if the two images were different.";"";73041;"";63;"html-keyboard-response";"";""
"65";28;"condition1";"";"";"";"";"";"0.0-6.0-0.13";"";"";"0";"";"img2/french/6.jpg";"";73289;"";64;"image-keyboard-response";"";""
"66";28;"condition1";"";"";"";"";"";"0.0-6.0-1.13";"";"";"1";"";"+";"";73601;"";65;"html-keyboard-response";"";""
"67";28;"condition1";"";"";"";"";"";"0.0-6.0-2.13";"";"";"2";"";"img2/french/12.jpg";"";73842;"";66;"image-keyboard-response";"";""
"68";28;"condition1";"D";"R";"";"";"";"0.0-6.0-3.13";"d";"555";"3";"T";"Press S if the two images were the same, Press D if the two images were different.";"";74399;"";67;"html-keyboard-response";"";""
"69";28;"condition1";"";"";"";"";"";"0.0-6.0-0.14";"";"";"0";"";"img2/jap/1.jpg";"";74644;"";68;"image-keyboard-response";"";""
"70";28;"condition1";"";"";"";"";"";"0.0-6.0-1.14";"";"";"1";"";"+";"";74955;"";69;"html-keyboard-response";"";""
"71";28;"condition1";"";"";"";"";"";"0.0-6.0-2.14";"";"";"2";"";"img2/Mjap/1.jpg";"";75198;"";70;"image-keyboard-response";"";""
"72";28;"condition1";"S";"J";"";"";"";"0.0-6.0-3.14";"s";"754";"3";"M";"Press S if the two images were the same, Press D if the two images were different.";"";75952;"";71;"html-keyboard-response";"";""
"73";28;"condition1";"";"";"";"";"";"0.0-6.0-0.15";"";"";"0";"";"img2/Mtools/1.jpg";"";76178;"";72;"image-keyboard-response";"";""
"74";28;"condition1";"";"";"";"";"";"0.0-6.0-1.15";"";"";"1";"";"+";"";76487;"";73;"html-keyboard-response";"";""
"75";28;"condition1";"";"";"";"";"";"0.0-6.0-2.15";"";"";"2";"";"img2/Mtools/10.jpg";"";76698;"";74;"image-keyboard-response";"";""
"76";28;"condition1";"D";"O";"";"";"";"0.0-6.0-3.15";"d";"555";"3";"M";"Press S if the two images were the same, Press D if the two images were different.";"";77253;"";75;"html-keyboard-response";"";""
"77";28;"condition1";"";"";"";"";"";"0.0-6.0-0.16";"";"";"0";"";"img2/Mjap/14.jpg";"";77491;"";76;"image-keyboard-response";"";""
"78";28;"condition1";"";"";"";"";"";"0.0-6.0-1.16";"";"";"1";"";"+";"";77803;"";77;"html-keyboard-response";"";""
"79";28;"condition1";"";"";"";"";"";"0.0-6.0-2.16";"";"";"2";"";"img2/Mjap/7.jpg";"";78053;"";78;"image-keyboard-response";"";""
"80";28;"condition1";"D";"J";"";"";"";"0.0-6.0-3.16";"s";"387";"3";"M";"Press S if the two images were the same, Press D if the two images were different.";"";78440;"";79;"html-keyboard-response";"";""
"81";28;"condition1";"";"";"";"";"";"0.0-6.0-0.17";"";"";"0";"";"img2/jap/2.jpg";"";78645;"";80;"image-keyboard-response";"";""
"82";28;"condition1";"";"";"";"";"";"0.0-6.0-1.17";"";"";"1";"";"+";"";78961;"";81;"html-keyboard-response";"";""
"83";28;"condition1";"";"";"";"";"";"0.0-6.0-2.17";"";"";"2";"";"img2/Mjap/2.jpg";"";79177;"";82;"image-keyboard-response";"";""
"84";28;"condition1";"S";"J";"";"";"";"0.0-6.0-3.17";"s";"510";"3";"M";"Press S if the two images were the same, Press D if the two images were different.";"";79689;"";83;"html-keyboard-response";"";""
"85";28;"condition1";"";"";"";"";"";"0.0-6.0-0.18";"";"";"0";"";"img2/french/4.jpg";"";79920;"";84;"image-keyboard-response";"";""
"86";28;"condition1";"";"";"";"";"";"0.0-6.0-1.18";"";"";"1";"";"+";"";80233;"";85;"html-keyboard-response";"";""
"87";28;"condition1";"";"";"";"";"";"0.0-6.0-2.18";"";"";"2";"";"img2/french/4.jpg";"";80436;"";86;"image-keyboard-response";"";""
"88";28;"condition1";"S";"R";"";"";"";"0.0-6.0-3.18";"s";"529";"3";"T";"Press S if the two images were the same, Press D if the two images were different.";"";80965;"";87;"html-keyboard-response";"";""
"89";28;"condition1";"";"";"";"";"";"0.0-6.0-0.19";"";"";"0";"";"img2/Mtools/14.jpg";"";81169;"";88;"image-keyboard-response";"";""
"90";28;"condition1";"";"";"";"";"";"0.0-6.0-1.19";"";"";"1";"";"+";"";81478;"";89;"html-keyboard-response";"";""
"91";28;"condition1";"";"";"";"";"";"0.0-6.0-2.19";"";"";"2";"";"img2/Mtools/7.jpg";"";81696;"";90;"image-keyboard-response";"";""
"92";28;"condition1";"D";"O";"";"";"";"0.0-6.0-3.19";"d";"444";"3";"M";"Press S if the two images were the same, Press D if the two images were different.";"";82141;"";91;"html-keyboard-response";"";""
"93";28;"condition1";"";"";"";"";"";"0.0-6.0-0.20";"";"";"0";"";"img2/faces/2.jpg";"";82355;"";92;"image-keyboard-response";"";""
"94";28;"condition1";"";"";"";"";"";"0.0-6.0-1.20";"";"";"1";"";"+";"";82666;"";93;"html-keyboard-response";"";""
"95";28;"condition1";"";"";"";"";"";"0.0-6.0-2.20";"";"";"2";"";"img2/Mfaces/2.jpg";"";82884;"";94;"image-keyboard-response";"";""
"96";28;"condition1";"S";"H";"";"";"";"0.0-6.0-3.20";"s";"363";"3";"M";"Press S if the two images were the same, Press D if the two images were different.";"";83248;"";95;"html-keyboard-response";"";""
"97";28;"condition1";"";"";"";"";"";"0.0-6.0-0.21";"";"";"0";"";"img2/faces/8.jpg";"";83467;"";96;"image-keyboard-response";"";""
"98";28;"condition1";"";"";"";"";"";"0.0-6.0-1.21";"";"";"1";"";"+";"";83782;"";97;"html-keyboard-response";"";""
"99";28;"condition1";"";"";"";"";"";"0.0-6.0-2.21";"";"";"2";"";"img2/faces/8.jpg";"";83997;"";98;"image-keyboard-response";"";""
"100";28;"condition1";"S";"H";"";"";"";"0.0-6.0-3.21";"s";"352";"3";"T";"Press S if the two images were the same, Press D if the two images were different.";"";84349;"";99;"html-keyboard-response";"";""
"101";28;"condition1";"";"";"";"";"";"0.0-6.0-0.22";"";"";"0";"";"img2/french/5.jpg";"";84556;"";100;"image-keyboard-response";"";""
"102";28;"condition1";"";"";"";"";"";"0.0-6.0-1.22";"";"";"1";"";"+";"";84864;"";101;"html-keyboard-response";"";""
"103";28;"condition1";"";"";"";"";"";"0.0-6.0-2.22";"";"";"2";"";"img2/french/6.jpg";"";85073;"";102;"image-keyboard-response";"";""
"104";28;"condition1";"D";"R";"";"";"";"0.0-6.0-3.22";"d";"511";"3";"T";"Press S if the two images were the same, Press D if the two images were different.";"";85585;"";103;"html-keyboard-response";"";""
"105";28;"condition1";"";"";"";"";"";"0.0-6.0-0.23";"";"";"0";"";"img2/faces/5.jpg";"";85797;"";104;"image-keyboard-response";"";""
"106";28;"condition1";"";"";"";"";"";"0.0-6.0-1.23";"";"";"1";"";"+";"";86104;"";105;"html-keyboard-response";"";""
"107";28;"condition1";"";"";"";"";"";"0.0-6.0-2.23";"";"";"2";"";"img2/Mfaces/5.jpg";"";86347;"";106;"image-keyboard-response";"";""
"108";28;"condition1";"S";"H";"";"";"";"0.0-6.0-3.23";"s";"429";"3";"M";"Press S if the two images were the same, Press D if the two images were different.";"";86778;"";107;"html-keyboard-response";"";""
"109";28;"condition1";"";"";"";"";"";"0.0-6.0-0.24";"";"";"0";"";"img2/faces/10.jpg";"";86989;"";108;"image-keyboard-response";"";""
"110";28;"condition1";"";"";"";"";"";"0.0-6.0-1.24";"";"";"1";"";"+";"";87304;"";109;"html-keyboard-response";"";""
"111";28;"condition1";"";"";"";"";"";"0.0-6.0-2.24";"";"";"2";"";"img2/Mfaces/10.jpg";"";87515;"";110;"image-keyboard-response";"";""
"112";28;"condition1";"S";"H";"";"";"";"0.0-6.0-3.24";"s";"405";"3";"M";"Press S if the two images were the same, Press D if the two images were different.";"";87922;"";111;"html-keyboard-response";"";""
"113";28;"condition1";"";"";"";"";"";"0.0-6.0-0.25";"";"";"0";"";"img2/jap/11.jpg";"";88163;"";112;"image-keyboard-response";"";""
"114";28;"condition1";"";"";"";"";"";"0.0-6.0-1.25";"";"";"1";"";"+";"";88465;"";113;"html-keyboard-response";"";""
"115";28;"condition1";"";"";"";"";"";"0.0-6.0-2.25";"";"";"2";"";"img2/jap/13.jpg";"";88668;"";114;"image-keyboard-response";"";""
"116";28;"condition1";"D";"J";"";"";"";"0.0-6.0-3.25";"d";"469";"3";"T";"Press S if the two images were the same, Press D if the two images were different.";"";89138;"";115;"html-keyboard-response";"";""
"117";28;"condition1";"";"";"";"";"";"0.0-6.0-0.26";"";"";"0";"";"img2/tools/13.jpg";"";89355;"";116;"image-keyboard-response";"";""
"118";28;"condition1";"";"";"";"";"";"0.0-6.0-1.26";"";"";"1";"";"+";"";89665;"";117;"html-keyboard-response";"";""
"119";28;"condition1";"";"";"";"";"";"0.0-6.0-2.26";"";"";"2";"";"img2/tools/13.jpg";"";89874;"";118;"image-keyboard-response";"";""
"120";28;"condition1";"S";"O";"";"";"";"0.0-6.0-3.26";"s";"381";"3";"T";"Press S if the two images were the same, Press D if the two images were different.";"";90256;"";119;"html-keyboard-response";"";""
"121";28;"condition1";"";"";"";"";"";"0.0-6.0-0.27";"";"";"0";"";"img2/french/3.jpg";"";90491;"";120;"image-keyboard-response";"";""
"122";28;"condition1";"";"";"";"";"";"0.0-6.0-1.27";"";"";"1";"";"+";"";90799;"";121;"html-keyboard-response";"";""
"123";28;"condition1";"";"";"";"";"";"0.0-6.0-2.27";"";"";"2";"";"img2/french/2.jpg";"";91044;"";122;"image-keyboard-response";"";""
"124";28;"condition1";"D";"R";"";"";"";"0.0-6.0-3.27";"d";"506";"3";"T";"Press S if the two images were the same, Press D if the two images were different.";"";91552;"";123;"html-keyboard-response";"";""
"125";28;"condition1";"";"";"";"";"";"0.0-6.0-0.28";"";"";"0";"";"img2/false/14.jpg";"";91787;"";124;"image-keyboard-response";"";""
"126";28;"condition1";"";"";"";"";"";"0.0-6.0-1.28";"";"";"1";"";"+";"";92099;"";125;"html-keyboard-response";"";""
"127";28;"condition1";"";"";"";"";"";"0.0-6.0-2.28";"";"";"2";"";"img2/false/14.jpg";"";92316;"";126;"image-keyboard-response";"";""
"128";28;"condition1";"S";"M";"";"";"";"0.0-6.0-3.28";"s";"673";"3";"T";"Press S if the two images were the same, Press D if the two images were different.";"";92990;"";127;"html-keyboard-response";"";""
"129";28;"condition1";"";"";"";"";"";"0.0-6.0-0.29";"";"";"0";"";"img2/tools/7.jpg";"";93203;"";128;"image-keyboard-response";"";""
"130";28;"condition1";"";"";"";"";"";"0.0-6.0-1.29";"";"";"1";"";"+";"";93509;"";129;"html-keyboard-response";"";""
"131";28;"condition1";"";"";"";"";"";"0.0-6.0-2.29";"";"";"2";"";"img2/tools/6.jpg";"";93712;"";130;"image-keyboard-response";"";""
"132";28;"condition1";"D";"O";"";"";"";"0.0-6.0-3.29";"d";"394";"3";"T";"Press S if the two images were the same, Press D if the two images were different.";"";94106;"";131;"html-keyboard-response";"";""
"133";28;"condition1";"";"";"";"";"";"0.0-6.0-0.30";"";"";"0";"";"img2/tools/2.jpg";"";94313;"";132;"image-keyboard-response";"";""
"134";28;"condition1";"";"";"";"";"";"0.0-6.0-1.30";"";"";"1";"";"+";"";94614;"";133;"html-keyboard-response";"";""
"135";28;"condition1";"";"";"";"";"";"0.0-6.0-2.30";"";"";"2";"";"img2/tools/8.jpg";"";94817;"";134;"image-keyboard-response";"";""
"136";28;"condition1";"D";"O";"";"";"";"0.0-6.0-3.30";"d";"472";"3";"T";"Press S if the two images were the same, Press D if the two images were different.";"";95291;"";135;"html-keyboard-response";"";""
"137";28;"condition1";"";"";"";"";"";"0.0-6.0-0.31";"";"";"0";"";"img2/french/8.jpg";"";95535;"";136;"image-keyboard-response";"";""
"138";28;"condition1";"";"";"";"";"";"0.0-6.0-1.31";"";"";"1";"";"+";"";95843;"";137;"html-keyboard-response";"";""
"139";28;"condition1";"";"";"";"";"";"0.0-6.0-2.31";"";"";"2";"";"img2/french/12.jpg";"";96056;"";138;"image-keyboard-response";"";""
"140";28;"condition1";"D";"R";"";"";"";"0.0-6.0-3.31";"d";"595";"3";"T";"Press S if the two images were the same, Press D if the two images were different.";"";96652;"";139;"html-keyboard-response";"";""
"141";28;"condition1";"";"";"";"";"";"0.0-6.0-0.32";"";"";"0";"";"img2/jap/5.jpg";"";96901;"";140;"image-keyboard-response";"";""
"142";28;"condition1";"";"";"";"";"";"0.0-6.0-1.32";"";"";"1";"";"+";"";97204;"";141;"html-keyboard-response";"";""
"143";28;"condition1";"";"";"";"";"";"0.0-6.0-2.32";"";"";"2";"";"img2/jap/6.jpg";"";97452;"";142;"image-keyboard-response";"";""
"144";28;"condition1";"D";"J";"";"";"";"0.0-6.0-3.32";"d";"467";"3";"T";"Press S if the two images were the same, Press D if the two images were different.";"";97921;"";143;"html-keyboard-response";"";""
"145";28;"condition1";"";"";"";"";"";"0.0-6.0-0.33";"";"";"0";"";"img2/tools/14.jpg";"";98134;"";144;"image-keyboard-response";"";""
"146";28;"condition1";"";"";"";"";"";"0.0-6.0-1.33";"";"";"1";"";"+";"";98435;"";145;"html-keyboard-response";"";""
"147";28;"condition1";"";"";"";"";"";"0.0-6.0-2.33";"";"";"2";"";"img2/Mtools/14.jpg";"";98651;"";146;"image-keyboard-response";"";""
"148";28;"condition1";"S";"O";"";"";"";"0.0-6.0-3.33";"s";"350";"3";"M";"Press S if the two images were the same, Press D if the two images were different.";"";99001;"";147;"html-keyboard-response";"";""
"149";28;"condition1";"";"";"";"";"";"0.0-6.0-0.34";"";"";"0";"";"img2/Mjap/1.jpg";"";99202;"";148;"image-keyboard-response";"";""
"150";28;"condition1";"";"";"";"";"";"0.0-6.0-1.34";"";"";"1";"";"+";"";99513;"";149;"html-keyboard-response";"";""
"151";28;"condition1";"";"";"";"";"";"0.0-6.0-2.34";"";"";"2";"";"img2/Mjap/10.jpg";"";99753;"";150;"image-keyboard-response";"";""
"152";28;"condition1";"D";"J";"";"";"";"0.0-6.0-3.34";"d";"410";"3";"M";"Press S if the two images were the same, Press D if the two images were different.";"";100164;"";151;"html-keyboard-response";"";""
"153";28;"condition1";"";"";"";"";"";"0.0-6.0-0.35";"";"";"0";"";"img2/jap/9.jpg";"";100411;"";152;"image-keyboard-response";"";""
"154";28;"condition1";"";"";"";"";"";"0.0-6.0-1.35";"";"";"1";"";"+";"";100719;"";153;"html-keyboard-response";"";""
"155";28;"condition1";"";"";"";"";"";"0.0-6.0-2.35";"";"";"2";"";"img2/jap/13.jpg";"";100924;"";154;"image-keyboard-response";"";""
"156";28;"condition1";"D";"J";"";"";"";"0.0-6.0-3.35";"d";"652";"3";"T";"Press S if the two images were the same, Press D if the two images were different.";"";101576;"";155;"html-keyboard-response";"";""
"157";28;"condition1";"";"";"";"";"";"0.0-6.0-0.36";"";"";"0";"";"img2/Mfalse/9.jpg";"";101814;"";156;"image-keyboard-response";"";""
"158";28;"condition1";"";"";"";"";"";"0.0-6.0-1.36";"";"";"1";"";"+";"";102124;"";157;"html-keyboard-response";"";""
"159";28;"condition1";"";"";"";"";"";"0.0-6.0-2.36";"";"";"2";"";"img2/Mfalse/13.jpg";"";102370;"";158;"image-keyboard-response";"";""
"160";28;"condition1";"D";"M";"";"";"";"0.0-6.0-3.36";"d";"468";"3";"M";"Press S if the two images were the same, Press D if the two images were different.";"";102839;"";159;"html-keyboard-response";"";""
"161";28;"condition1";"";"";"";"";"";"0.0-6.0-0.37";"";"";"0";"";"img2/jap/14.jpg";"";103089;"";160;"image-keyboard-response";"";""
"162";28;"condition1";"";"";"";"";"";"0.0-6.0-1.37";"";"";"1";"";"+";"";103395;"";161;"html-keyboard-response";"";""
"163";28;"condition1";"";"";"";"";"";"0.0-6.0-2.37";"";"";"2";"";"img2/jap/14.jpg";"";103596;"";162;"image-keyboard-response";"";""
"164";28;"condition1";"S";"J";"";"";"";"0.0-6.0-3.37";"s";"351";"3";"T";"Press S if the two images were the same, Press D if the two images were different.";"";103947;"";163;"html-keyboard-response";"";""
"165";28;"condition1";"";"";"";"";"";"0.0-6.0-0.38";"";"";"0";"";"img2/false/5.jpg";"";104159;"";164;"image-keyboard-response";"";""
"166";28;"condition1";"";"";"";"";"";"0.0-6.0-1.38";"";"";"1";"";"+";"";104460;"";165;"html-keyboard-response";"";""
"167";28;"condition1";"";"";"";"";"";"0.0-6.0-2.38";"";"";"2";"";"img2/false/6.jpg";"";104670;"";166;"image-keyboard-response";"";""
"168";28;"condition1";"D";"M";"";"";"";"0.0-6.0-3.38";"d";"700";"3";"T";"Press S if the two images were the same, Press D if the two images were different.";"";105372;"";167;"html-keyboard-response";"";""
"169";28;"condition1";"";"";"";"";"";"0.0-6.0-0.39";"";"";"0";"";"img2/Mjap/5.jpg";"";105623;"";168;"image-keyboard-response";"";""
"170";28;"condition1";"";"";"";"";"";"0.0-6.0-1.39";"";"";"1";"";"+";"";105924;"";169;"html-keyboard-response";"";""
"171";28;"condition1";"";"";"";"";"";"0.0-6.0-2.39";"";"";"2";"";"img2/Mjap/6.jpg";"";106181;"";170;"image-keyboard-response";"";""
"172";28;"condition1";"D";"J";"";"";"";"0.0-6.0-3.39";"d";"416";"3";"M";"Press S if the two images were the same, Press D if the two images were different.";"";106598;"";171;"html-keyboard-response";"";""
"173";28;"condition1";"";"";"";"";"";"0.0-6.0-0.40";"";"";"0";"";"img2/faces/7.jpg";"";106830;"";172;"image-keyboard-response";"";""
"174";28;"condition1";"";"";"";"";"";"0.0-6.0-1.40";"";"";"1";"";"+";"";107131;"";173;"html-keyboard-response";"";""
"175";28;"condition1";"";"";"";"";"";"0.0-6.0-2.40";"";"";"2";"";"img2/faces/7.jpg";"";107339;"";174;"image-keyboard-response";"";""
"176";28;"condition1";"S";"H";"";"";"";"0.0-6.0-3.40";"s";"393";"3";"T";"Press S if the two images were the same, Press D if the two images were different.";"";107733;"";175;"html-keyboard-response";"";""
"177";28;"condition1";"";"";"";"";"";"0.0-6.0-0.41";"";"";"0";"";"img2/false/9.jpg";"";107972;"";176;"image-keyboard-response";"";""
"178";28;"condition1";"";"";"";"";"";"0.0-6.0-1.41";"";"";"1";"";"+";"";108281;"";177;"html-keyboard-response";"";""
"179";28;"condition1";"";"";"";"";"";"0.0-6.0-2.41";"";"";"2";"";"img2/false/13.jpg";"";108523;"";178;"image-keyboard-response";"";""
"180";28;"condition1";"D";"M";"";"";"";"0.0-6.0-3.41";"d";"390";"3";"T";"Press S if the two images were the same, Press D if the two images were different.";"";108915;"";179;"html-keyboard-response";"";""
"181";28;"condition1";"";"";"";"";"";"0.0-6.0-0.42";"";"";"0";"";"img2/Mjap/4.jpg";"";109172;"";180;"image-keyboard-response";"";""
"182";28;"condition1";"";"";"";"";"";"0.0-6.0-1.42";"";"";"1";"";"+";"";109485;"";181;"html-keyboard-response";"";""
"183";28;"condition1";"";"";"";"";"";"0.0-6.0-2.42";"";"";"2";"";"img2/Mjap/8.jpg";"";109698;"";182;"image-keyboard-response";"";""
"184";28;"condition1";"D";"J";"";"";"";"0.0-6.0-3.42";"d";"438";"3";"M";"Press S if the two images were the same, Press D if the two images were different.";"";110139;"";183;"html-keyboard-response";"";""
"185";28;"condition1";"";"";"";"";"";"0.0-6.0-0.43";"";"";"0";"";"img2/Mfaces/6.jpg";"";110345;"";184;"image-keyboard-response";"";""
"186";28;"condition1";"";"";"";"";"";"0.0-6.0-1.43";"";"";"1";"";"+";"";110657;"";185;"html-keyboard-response";"";""
"187";28;"condition1";"";"";"";"";"";"0.0-6.0-2.43";"";"";"2";"";"img2/Mfaces/12.jpg";"";110878;"";186;"image-keyboard-response";"";""
"188";28;"condition1";"D";"H";"";"";"";"0.0-6.0-3.43";"d";"487";"3";"M";"Press S if the two images were the same, Press D if the two images were different.";"";111365;"";187;"html-keyboard-response";"";""
"189";28;"condition1";"";"";"";"";"";"0.0-6.0-0.44";"";"";"0";"";"img2/faces/1.jpg";"";111578;"";188;"image-keyboard-response";"";""
"190";28;"condition1";"";"";"";"";"";"0.0-6.0-1.44";"";"";"1";"";"+";"";111887;"";189;"html-keyboard-response";"";""
"191";28;"condition1";"";"";"";"";"";"0.0-6.0-2.44";"";"";"2";"";"img2/faces/10.jpg";"";112095;"";190;"image-keyboard-response";"";""
"192";28;"condition1";"D";"H";"";"";"";"0.0-6.0-3.44";"d";"378";"3";"T";"Press S if the two images were the same, Press D if the two images were different.";"";112474;"";191;"html-keyboard-response";"";""
"193";28;"condition1";"";"";"";"";"";"0.0-6.0-0.45";"";"";"0";"";"img2/faces/2.jpg";"";112682;"";192;"image-keyboard-response";"";""
"194";28;"condition1";"";"";"";"";"";"0.0-6.0-1.45";"";"";"1";"";"+";"";112987;"";193;"html-keyboard-response";"";""
"195";28;"condition1";"";"";"";"";"";"0.0-6.0-2.45";"";"";"2";"";"img2/faces/2.jpg";"";113198;"";194;"image-keyboard-response";"";""
"196";28;"condition1";"S";"H";"";"";"";"0.0-6.0-3.45";"s";"297";"3";"T";"Press S if the two images were the same, Press D if the two images were different.";"";113496;"";195;"html-keyboard-response";"";""
"197";28;"condition1";"";"";"";"";"";"0.0-6.0-0.46";"";"";"0";"";"img2/Mfalse/6.jpg";"";113737;"";196;"image-keyboard-response";"";""
"198";28;"condition1";"";"";"";"";"";"0.0-6.0-1.46";"";"";"1";"";"+";"";114046;"";197;"html-keyboard-response";"";""
"199";28;"condition1";"";"";"";"";"";"0.0-6.0-2.46";"";"";"2";"";"img2/Mfalse/12.jpg";"";114259;"";198;"image-keyboard-response";"";""
"200";28;"condition1";"D";"M";"";"";"";"0.0-6.0-3.46";"d";"348";"3";"M";"Press S if the two images were the same, Press D if the two images were different.";"";114606;"";199;"html-keyboard-response";"";""
"201";28;"condition1";"";"";"";"";"";"0.0-6.0-0.47";"";"";"0";"";"img2/false/14.jpg";"";114808;"";200;"image-keyboard-response";"";""
"202";28;"condition1";"";"";"";"";"";"0.0-6.0-1.47";"";"";"1";"";"+";"";115116;"";201;"html-keyboard-response";"";""
"203";28;"condition1";"";"";"";"";"";"0.0-6.0-2.47";"";"";"2";"";"img2/false/7.jpg";"";115358;"";202;"image-keyboard-response";"";""
"204";28;"condition1";"D";"M";"";"";"";"0.0-6.0-3.47";"d";"469";"3";"T";"Press S if the two images were the same, Press D if the two images were different.";"";115828;"";203;"html-keyboard-response";"";""
"205";28;"condition1";"";"";"";"";"";"0.0-6.0-0.48";"";"";"0";"";"img2/Mjap/9.jpg";"";116075;"";204;"image-keyboard-response";"";""
"206";28;"condition1";"";"";"";"";"";"0.0-6.0-1.48";"";"";"1";"";"+";"";116379;"";205;"html-keyboard-response";"";""
"207";28;"condition1";"";"";"";"";"";"0.0-6.0-2.48";"";"";"2";"";"img2/Mjap/13.jpg";"";116592;"";206;"image-keyboard-response";"";""
"208";28;"condition1";"D";"J";"";"";"";"0.0-6.0-3.48";"d";"398";"3";"M";"Press S if the two images were the same, Press D if the two images were different.";"";116991;"";207;"html-keyboard-response";"";""
"209";28;"condition1";"";"";"";"";"";"0.0-6.0-0.49";"";"";"0";"";"img2/tools/1.jpg";"";117216;"";208;"image-keyboard-response";"";""
"210";28;"condition1";"";"";"";"";"";"0.0-6.0-1.49";"";"";"1";"";"+";"";117520;"";209;"html-keyboard-response";"";""
"211";28;"condition1";"";"";"";"";"";"0.0-6.0-2.49";"";"";"2";"";"img2/tools/10.jpg";"";117735;"";210;"image-keyboard-response";"";""
"212";28;"condition1";"D";"O";"";"";"";"0.0-6.0-3.49";"d";"445";"3";"T";"Press S if the two images were the same, Press D if the two images were different.";"";118180;"";211;"html-keyboard-response";"";""
"213";28;"condition1";"";"";"";"";"";"0.0-6.0-0.50";"";"";"0";"";"img2/Mtools/4.jpg";"";118389;"";212;"image-keyboard-response";"";""
"214";28;"condition1";"";"";"";"";"";"0.0-6.0-1.50";"";"";"1";"";"+";"";118701;"";213;"html-keyboard-response";"";""
"215";28;"condition1";"";"";"";"";"";"0.0-6.0-2.50";"";"";"2";"";"img2/Mtools/8.jpg";"";118918;"";214;"image-keyboard-response";"";""
"216";28;"condition1";"D";"O";"";"";"";"0.0-6.0-3.50";"d";"377";"3";"M";"Press S if the two images were the same, Press D if the two images were different.";"";119295;"";215;"html-keyboard-response";"";""
"217";28;"condition1";"";"";"";"";"";"0.0-6.0-0.51";"";"";"0";"";"img2/french/6.jpg";"";119497;"";216;"image-keyboard-response";"";""
"218";28;"condition1";"";"";"";"";"";"0.0-6.0-1.51";"";"";"1";"";"+";"";119801;"";217;"html-keyboard-response";"";""
"219";28;"condition1";"";"";"";"";"";"0.0-6.0-2.51";"";"";"2";"";"img2/Mfrench/6.jpg";"";120043;"";218;"image-keyboard-response";"";""
"220";28;"condition1";"S";"R";"";"";"";"0.0-6.0-3.51";"s";"442";"3";"M";"Press S if the two images were the same, Press D if the two images were different.";"";120486;"";219;"html-keyboard-response";"";""
"221";28;"condition1";"";"";"";"";"";"0.0-6.0-0.52";"";"";"0";"";"img2/faces/5.jpg";"";120697;"";220;"image-keyboard-response";"";""
"222";28;"condition1";"";"";"";"";"";"0.0-6.0-1.52";"";"";"1";"";"+";"";121002;"";221;"html-keyboard-response";"";""
"223";28;"condition1";"";"";"";"";"";"0.0-6.0-2.52";"";"";"2";"";"img2/faces/6.jpg";"";121210;"";222;"image-keyboard-response";"";""
"224";28;"condition1";"D";"H";"";"";"";"0.0-6.0-3.52";"d";"326";"3";"T";"Press S if the two images were the same, Press D if the two images were different.";"";121537;"";223;"html-keyboard-response";"";""
"225";28;"condition1";"";"";"";"";"";"0.0-6.0-0.53";"";"";"0";"";"img2/tools/4.jpg";"";121760;"";224;"image-keyboard-response";"";""
"226";28;"condition1";"";"";"";"";"";"0.0-6.0-1.53";"";"";"1";"";"+";"";122067;"";225;"html-keyboard-response";"";""
"227";28;"condition1";"";"";"";"";"";"0.0-6.0-2.53";"";"";"2";"";"img2/Mtools/4.jpg";"";122270;"";226;"image-keyboard-response";"";""
"228";28;"condition1";"S";"O";"";"";"";"0.0-6.0-3.53";"s";"324";"3";"M";"Press S if the two images were the same, Press D if the two images were different.";"";122596;"";227;"html-keyboard-response";"";""
"229";28;"condition1";"";"";"";"";"";"0.0-6.0-0.54";"";"";"0";"";"img2/false/1.jpg";"";122835;"";228;"image-keyboard-response";"";""
"230";28;"condition1";"";"";"";"";"";"0.0-6.0-1.54";"";"";"1";"";"+";"";123140;"";229;"html-keyboard-response";"";""
"231";28;"condition1";"";"";"";"";"";"0.0-6.0-2.54";"";"";"2";"";"img2/false/10.jpg";"";123378;"";230;"image-keyboard-response";"";""
"232";28;"condition1";"D";"M";"";"";"";"0.0-6.0-3.54";"d";"404";"3";"T";"Press S if the two images were the same, Press D if the two images were different.";"";123782;"";231;"html-keyboard-response";"";""
"233";28;"condition1";"";"";"";"";"";"0.0-6.0-0.55";"";"";"0";"";"img2/faces/10.jpg";"";123987;"";232;"image-keyboard-response";"";""
"234";28;"condition1";"";"";"";"";"";"0.0-6.0-1.55";"";"";"1";"";"+";"";124291;"";233;"html-keyboard-response";"";""
"235";28;"condition1";"";"";"";"";"";"0.0-6.0-2.55";"";"";"2";"";"img2/faces/10.jpg";"";124503;"";234;"image-keyboard-response";"";""
"236";28;"condition1";"S";"H";"";"";"";"0.0-6.0-3.55";"s";"336";"3";"T";"Press S if the two images were the same, Press D if the two images were different.";"";124839;"";235;"html-keyboard-response";"";""
"237";28;"condition1";"";"";"";"";"";"0.0-6.0-0.56";"";"";"0";"";"img2/faces/8.jpg";"";125042;"";236;"image-keyboard-response";"";""
"238";28;"condition1";"";"";"";"";"";"0.0-6.0-1.56";"";"";"1";"";"+";"";125354;"";237;"html-keyboard-response";"";""
"239";28;"condition1";"";"";"";"";"";"0.0-6.0-2.56";"";"";"2";"";"img2/Mfaces/8.jpg";"";125567;"";238;"image-keyboard-response";"";""
"240";28;"condition1";"S";"H";"";"";"";"0.0-6.0-3.56";"s";"384";"3";"M";"Press S if the two images were the same, Press D if the two images were different.";"";125952;"";239;"html-keyboard-response";"";""
"241";28;"condition1";"";"";"";"";"";"0.0-6.0-0.57";"";"";"0";"";"img2/false/4.jpg";"";126188;"";240;"image-keyboard-response";"";""
"242";28;"condition1";"";"";"";"";"";"0.0-6.0-1.57";"";"";"1";"";"+";"";126496;"";241;"html-keyboard-response";"";""
"243";28;"condition1";"";"";"";"";"";"0.0-6.0-2.57";"";"";"2";"";"img2/false/4.jpg";"";126712;"";242;"image-keyboard-response";"";""
"244";28;"condition1";"S";"M";"";"";"";"0.0-6.0-3.57";"s";"270";"3";"T";"Press S if the two images were the same, Press D if the two images were different.";"";126983;"";243;"html-keyboard-response";"";""
"245";28;"condition1";"";"";"";"";"";"0.0-6.0-0.58";"";"";"0";"";"img2/false/13.jpg";"";127196;"";244;"image-keyboard-response";"";""
"246";28;"condition1";"";"";"";"";"";"0.0-6.0-1.58";"";"";"1";"";"+";"";127505;"";245;"html-keyboard-response";"";""
"247";28;"condition1";"";"";"";"";"";"0.0-6.0-2.58";"";"";"2";"";"img2/Mfalse/13.jpg";"";127713;"";246;"image-keyboard-response";"";""
"248";28;"condition1";"S";"M";"";"";"";"0.0-6.0-3.58";"d";"406";"3";"M";"Press S if the two images were the same, Press D if the two images were different.";"";128120;"";247;"html-keyboard-response";"";""
"249";28;"condition1";"";"";"";"";"";"0.0-6.0-0.59";"";"";"0";"";"img2/jap/7.jpg";"";128362;"";248;"image-keyboard-response";"";""
"250";28;"condition1";"";"";"";"";"";"0.0-6.0-1.59";"";"";"1";"";"+";"";128675;"";249;"html-keyboard-response";"";""
"251";28;"condition1";"";"";"";"";"";"0.0-6.0-2.59";"";"";"2";"";"img2/jap/6.jpg";"";128885;"";250;"image-keyboard-response";"";""
"252";28;"condition1";"D";"J";"";"";"";"0.0-6.0-3.59";"d";"430";"3";"T";"Press S if the two images were the same, Press D if the two images were different.";"";129315;"";251;"html-keyboard-response";"";""
"253";28;"condition1";"";"";"";"";"";"0.0-6.0-0.60";"";"";"0";"";"img2/Mfaces/4.jpg";"";129531;"";252;"image-keyboard-response";"";""
"254";28;"condition1";"";"";"";"";"";"0.0-6.0-1.60";"";"";"1";"";"+";"";129836;"";253;"html-keyboard-response";"";""
"255";28;"condition1";"";"";"";"";"";"0.0-6.0-2.60";"";"";"2";"";"img2/Mfaces/8.jpg";"";130039;"";254;"image-keyboard-response";"";""
"256";28;"condition1";"D";"H";"";"";"";"0.0-6.0-3.60";"d";"425";"3";"M";"Press S if the two images were the same, Press D if the two images were different.";"";130466;"";255;"html-keyboard-response";"";""
"257";28;"condition1";"";"";"";"";"";"0.0-6.0-0.61";"";"";"0";"";"img2/french/5.jpg";"";130673;"";256;"image-keyboard-response";"";""
"258";28;"condition1";"";"";"";"";"";"0.0-6.0-1.61";"";"";"1";"";"+";"";130986;"";257;"html-keyboard-response";"";""
"259";28;"condition1";"";"";"";"";"";"0.0-6.0-2.61";"";"";"2";"";"img2/french/5.jpg";"";131198;"";258;"image-keyboard-response";"";""
"260";28;"condition1";"S";"R";"";"";"";"0.0-6.0-3.61";"s";"452";"3";"T";"Press S if the two images were the same, Press D if the two images were different.";"";131650;"";259;"html-keyboard-response";"";""
"261";28;"condition1";"";"";"";"";"";"0.0-6.0-0.62";"";"";"0";"";"img2/french/3.jpg";"";131866;"";260;"image-keyboard-response";"";""
"262";28;"condition1";"";"";"";"";"";"0.0-6.0-1.62";"";"";"1";"";"+";"";132178;"";261;"html-keyboard-response";"";""
"263";28;"condition1";"";"";"";"";"";"0.0-6.0-2.62";"";"";"2";"";"img2/french/3.jpg";"";132398;"";262;"image-keyboard-response";"";""
"264";28;"condition1";"S";"R";"";"";"";"0.0-6.0-3.62";"s";"353";"3";"T";"Press S if the two images were the same, Press D if the two images were different.";"";132751;"";263;"html-keyboard-response";"";""
"265";28;"condition1";"";"";"";"";"";"0.0-6.0-0.63";"";"";"0";"";"img2/false/14.jpg";"";132965;"";264;"image-keyboard-response";"";""
"266";28;"condition1";"";"";"";"";"";"0.0-6.0-1.63";"";"";"1";"";"+";"";133278;"";265;"html-keyboard-response";"";""
"267";28;"condition1";"";"";"";"";"";"0.0-6.0-2.63";"";"";"2";"";"img2/Mfalse/14.jpg";"";133526;"";266;"image-keyboard-response";"";""
"268";28;"condition1";"S";"M";"";"";"";"0.0-6.0-3.63";"d";"570";"3";"M";"Press S if the two images were the same, Press D if the two images were different.";"";134096;"";267;"html-keyboard-response";"";""
"269";28;"condition1";"";"";"";"";"";"0.0-6.0-0.64";"";"";"0";"";"img2/faces/7.jpg";"";134303;"";268;"image-keyboard-response";"";""
"270";28;"condition1";"";"";"";"";"";"0.0-6.0-1.64";"";"";"1";"";"+";"";134616;"";269;"html-keyboard-response";"";""
"271";28;"condition1";"";"";"";"";"";"0.0-6.0-2.64";"";"";"2";"";"img2/faces/6.jpg";"";134820;"";270;"image-keyboard-response";"";""
"272";28;"condition1";"D";"H";"";"";"";"0.0-6.0-3.64";"d";"486";"3";"T";"Press S if the two images were the same, Press D if the two images were different.";"";135307;"";271;"html-keyboard-response";"";""
"273";28;"condition1";"";"";"";"";"";"0.0-6.0-0.65";"";"";"0";"";"img2/false/12.jpg";"";135520;"";272;"image-keyboard-response";"";""
"274";28;"condition1";"";"";"";"";"";"0.0-6.0-1.65";"";"";"1";"";"+";"";135824;"";273;"html-keyboard-response";"";""
"275";28;"condition1";"";"";"";"";"";"0.0-6.0-2.65";"";"";"2";"";"img2/false/3.jpg";"";136070;"";274;"image-keyboard-response";"";""
"276";28;"condition1";"D";"M";"";"";"";"0.0-6.0-3.65";"d";"487";"3";"T";"Press S if the two images were the same, Press D if the two images were different.";"";136558;"";275;"html-keyboard-response";"";""
"277";28;"condition1";"";"";"";"";"";"0.0-6.0-0.66";"";"";"0";"";"img2/jap/7.jpg";"";136770;"";276;"image-keyboard-response";"";""
"278";28;"condition1";"";"";"";"";"";"0.0-6.0-1.66";"";"";"1";"";"+";"";137083;"";277;"html-keyboard-response";"";""
"279";28;"condition1";"";"";"";"";"";"0.0-6.0-2.66";"";"";"2";"";"img2/Mjap/7.jpg";"";137296;"";278;"image-keyboard-response";"";""
"280";28;"condition1";"S";"J";"";"";"";"0.0-6.0-3.66";"s";"338";"3";"M";"Press S if the two images were the same, Press D if the two images were different.";"";137634;"";279;"html-keyboard-response";"";""
"281";28;"condition1";"";"";"";"";"";"0.0-6.0-0.67";"";"";"0";"";"img2/jap/6.jpg";"";137846;"";280;"image-keyboard-response";"";""
"282";28;"condition1";"";"";"";"";"";"0.0-6.0-1.67";"";"";"1";"";"+";"";138151;"";281;"html-keyboard-response";"";""
"283";28;"condition1";"";"";"";"";"";"0.0-6.0-2.67";"";"";"2";"";"img2/jap/6.jpg";"";138363;"";282;"image-keyboard-response";"";""
"284";28;"condition1";"S";"J";"";"";"";"0.0-6.0-3.67";"s";"344";"3";"T";"Press S if the two images were the same, Press D if the two images were different.";"";138707;"";283;"html-keyboard-response";"";""
"285";28;"condition1";"";"";"";"";"";"0.0-6.0-0.68";"";"";"0";"";"img2/Mtools/3.jpg";"";138923;"";284;"image-keyboard-response";"";""
"286";28;"condition1";"";"";"";"";"";"0.0-6.0-1.68";"";"";"1";"";"+";"";139234;"";285;"html-keyboard-response";"";""
"287";28;"condition1";"";"";"";"";"";"0.0-6.0-2.68";"";"";"2";"";"img2/Mtools/2.jpg";"";139438;"";286;"image-keyboard-response";"";""
"288";28;"condition1";"D";"O";"";"";"";"0.0-6.0-3.68";"d";"376";"3";"M";"Press S if the two images were the same, Press D if the two images were different.";"";139815;"";287;"html-keyboard-response";"";""
"289";28;"condition1";"";"";"";"";"";"0.0-6.0-0.69";"";"";"0";"";"img2/faces/14.jpg";"";140043;"";288;"image-keyboard-response";"";""
"290";28;"condition1";"";"";"";"";"";"0.0-6.0-1.69";"";"";"1";"";"+";"";140354;"";289;"html-keyboard-response";"";""
"291";28;"condition1";"";"";"";"";"";"0.0-6.0-2.69";"";"";"2";"";"img2/faces/7.jpg";"";140558;"";290;"image-keyboard-response";"";""
"292";28;"condition1";"D";"H";"";"";"";"0.0-6.0-3.69";"d";"521";"3";"T";"Press S if the two images were the same, Press D if the two images were different.";"";141080;"";291;"html-keyboard-response";"";""
"293";28;"condition1";"";"";"";"";"";"0.0-6.0-0.70";"";"";"0";"";"img2/Mfrench/2.jpg";"";141335;"";292;"image-keyboard-response";"";""
"294";28;"condition1";"";"";"";"";"";"0.0-6.0-1.70";"";"";"1";"";"+";"";141646;"";293;"html-keyboard-response";"";""
"295";28;"condition1";"";"";"";"";"";"0.0-6.0-2.70";"";"";"2";"";"img2/Mfrench/8.jpg";"";141898;"";294;"image-keyboard-response";"";""
"296";28;"condition1";"D";"R";"";"";"";"0.0-6.0-3.70";"d";"693";"3";"M";"Press S if the two images were the same, Press D if the two images were different.";"";142591;"";295;"html-keyboard-response";"";""
"297";28;"condition1";"";"";"";"";"";"0.0-6.0-0.71";"";"";"0";"";"img2/tools/8.jpg";"";142798;"";296;"image-keyboard-response";"";""
"298";28;"condition1";"";"";"";"";"";"0.0-6.0-1.71";"";"";"1";"";"+";"";143106;"";297;"html-keyboard-response";"";""
"299";28;"condition1";"";"";"";"";"";"0.0-6.0-2.71";"";"";"2";"";"img2/Mtools/8.jpg";"";143322;"";298;"image-keyboard-response";"";""
"300";28;"condition1";"S";"O";"";"";"";"0.0-6.0-3.71";"s";"359";"3";"M";"Press S if the two images were the same, Press D if the two images were different.";"";143681;"";299;"html-keyboard-response";"";""
"301";28;"condition1";"";"";"";"";"";"0.0-6.0-0.72";"";"";"0";"";"img2/Mtools/2.jpg";"";143885;"";300;"image-keyboard-response";"";""
"302";28;"condition1";"";"";"";"";"";"0.0-6.0-1.72";"";"";"1";"";"+";"";144195;"";301;"html-keyboard-response";"";""
"303";28;"condition1";"";"";"";"";"";"0.0-6.0-2.72";"";"";"2";"";"img2/Mtools/8.jpg";"";144411;"";302;"image-keyboard-response";"";""
"304";28;"condition1";"D";"O";"";"";"";"0.0-6.0-3.72";"d";"508";"3";"M";"Press S if the two images were the same, Press D if the two images were different.";"";144919;"";303;"html-keyboard-response";"";""
"305";28;"condition1";"";"";"";"";"";"0.0-6.0-0.73";"";"";"0";"";"img2/tools/11.jpg";"";145136;"";304;"image-keyboard-response";"";""
"306";28;"condition1";"";"";"";"";"";"0.0-6.0-1.73";"";"";"1";"";"+";"";145438;"";305;"html-keyboard-response";"";""
"307";28;"condition1";"";"";"";"";"";"0.0-6.0-2.73";"";"";"2";"";"img2/Mtools/11.jpg";"";145660;"";306;"image-keyboard-response";"";""
"308";28;"condition1";"S";"O";"";"";"";"0.0-6.0-3.73";"s";"322";"3";"M";"Press S if the two images were the same, Press D if the two images were different.";"";145983;"";307;"html-keyboard-response";"";""
"309";28;"condition1";"";"";"";"";"";"0.0-6.0-0.74";"";"";"0";"";"img2/false/7.jpg";"";146188;"";308;"image-keyboard-response";"";""
"310";28;"condition1";"";"";"";"";"";"0.0-6.0-1.74";"";"";"1";"";"+";"";146492;"";309;"html-keyboard-response";"";""
"311";28;"condition1";"";"";"";"";"";"0.0-6.0-2.74";"";"";"2";"";"img2/false/7.jpg";"";146700;"";310;"image-keyboard-response";"";""
"312";28;"condition1";"S";"M";"";"";"";"0.0-6.0-3.74";"s";"555";"3";"T";"Press S if the two images were the same, Press D if the two images were different.";"";147257;"";311;"html-keyboard-response";"";""
"313";28;"condition1";"";"";"";"";"";"0.0-6.0-0.75";"";"";"0";"";"img2/french/7.jpg";"";147495;"";312;"image-keyboard-response";"";""
"314";28;"condition1";"";"";"";"";"";"0.0-6.0-1.75";"";"";"1";"";"+";"";147813;"";313;"html-keyboard-response";"";""
"315";28;"condition1";"";"";"";"";"";"0.0-6.0-2.75";"";"";"2";"";"img2/french/6.jpg";"";148026;"";314;"image-keyboard-response";"";""
"316";28;"condition1";"D";"R";"";"";"";"0.0-6.0-3.75";"d";"428";"3";"T";"Press S if the two images were the same, Press D if the two images were different.";"";148455;"";315;"html-keyboard-response";"";""
"317";28;"condition1";"";"";"";"";"";"0.0-6.0-0.76";"";"";"0";"";"img2/jap/12.jpg";"";148692;"";316;"image-keyboard-response";"";""
"318";28;"condition1";"";"";"";"";"";"0.0-6.0-1.76";"";"";"1";"";"+";"";149001;"";317;"html-keyboard-response";"";""
"319";28;"condition1";"";"";"";"";"";"0.0-6.0-2.76";"";"";"2";"";"img2/jap/12.jpg";"";149213;"";318;"image-keyboard-response";"";""
"320";28;"condition1";"S";"J";"";"";"";"0.0-6.0-3.76";"s";"346";"3";"T";"Press S if the two images were the same, Press D if the two images were different.";"";149562;"";319;"html-keyboard-response";"";""
"321";28;"condition1";"";"";"";"";"";"0.0-6.0-0.77";"";"";"0";"";"img2/french/1.jpg";"";149797;"";320;"image-keyboard-response";"";""
"322";28;"condition1";"";"";"";"";"";"0.0-6.0-1.77";"";"";"1";"";"+";"";150106;"";321;"html-keyboard-response";"";""
"323";28;"condition1";"";"";"";"";"";"0.0-6.0-2.77";"";"";"2";"";"img2/Mfrench/1.jpg";"";150356;"";322;"image-keyboard-response";"";""
"324";28;"condition1";"S";"R";"";"";"";"0.0-6.0-3.77";"s";"410";"3";"M";"Press S if the two images were the same, Press D if the two images were different.";"";150768;"";323;"html-keyboard-response";"";""
"325";28;"condition1";"";"";"";"";"";"0.0-6.0-0.78";"";"";"0";"";"img2/tools/12.jpg";"";150984;"";324;"image-keyboard-response";"";""
"326";28;"condition1";"";"";"";"";"";"0.0-6.0-1.78";"";"";"1";"";"+";"";151298;"";325;"html-keyboard-response";"";""
"327";28;"condition1";"";"";"";"";"";"0.0-6.0-2.78";"";"";"2";"";"img2/tools/3.jpg";"";151507;"";326;"image-keyboard-response";"";""
"328";28;"condition1";"D";"O";"";"";"";"0.0-6.0-3.78";"d";"394";"3";"T";"Press S if the two images were the same, Press D if the two images were different.";"";151901;"";327;"html-keyboard-response";"";""
"329";28;"condition1";"";"";"";"";"";"0.0-6.0-0.79";"";"";"0";"";"img2/false/13.jpg";"";152105;"";328;"image-keyboard-response";"";""
"330";28;"condition1";"";"";"";"";"";"0.0-6.0-1.79";"";"";"1";"";"+";"";152422;"";329;"html-keyboard-response";"";""
"331";28;"condition1";"";"";"";"";"";"0.0-6.0-2.79";"";"";"2";"";"img2/false/13.jpg";"";152623;"";330;"image-keyboard-response";"";""
"332";28;"condition1";"S";"M";"";"";"";"0.0-6.0-3.79";"s";"470";"3";"T";"Press S if the two images were the same, Press D if the two images were different.";"";153093;"";331;"html-keyboard-response";"";""
"333";28;"condition1";"";"";"";"";"";"0.0-6.0-0.80";"";"";"0";"";"img2/Mfalse/3.jpg";"";153306;"";332;"image-keyboard-response";"";""
"334";28;"condition1";"";"";"";"";"";"0.0-6.0-1.80";"";"";"1";"";"+";"";153622;"";333;"html-keyboard-response";"";""
"335";28;"condition1";"";"";"";"";"";"0.0-6.0-2.80";"";"";"2";"";"img2/Mfalse/2.jpg";"";153865;"";334;"image-keyboard-response";"";""
"336";28;"condition1";"D";"M";"";"";"";"0.0-6.0-3.80";"d";"410";"3";"M";"Press S if the two images were the same, Press D if the two images were different.";"";154276;"";335;"html-keyboard-response";"";""
"337";28;"condition1";"";"";"";"";"";"0.0-6.0-0.81";"";"";"0";"";"img2/jap/14.jpg";"";154490;"";336;"image-keyboard-response";"";""
"338";28;"condition1";"";"";"";"";"";"0.0-6.0-1.81";"";"";"1";"";"+";"";154798;"";337;"html-keyboard-response";"";""
"339";28;"condition1";"";"";"";"";"";"0.0-6.0-2.81";"";"";"2";"";"img2/jap/7.jpg";"";155011;"";338;"image-keyboard-response";"";""
"340";28;"condition1";"D";"J";"";"";"";"0.0-6.0-3.81";"s";"286";"3";"T";"Press S if the two images were the same, Press D if the two images were different.";"";155298;"";339;"html-keyboard-response";"";""
"341";28;"condition1";"";"";"";"";"";"0.0-6.0-0.82";"";"";"0";"";"img2/Mjap/8.jpg";"";155507;"";340;"image-keyboard-response";"";""
"342";28;"condition1";"";"";"";"";"";"0.0-6.0-1.82";"";"";"1";"";"+";"";155820;"";341;"html-keyboard-response";"";""
"343";28;"condition1";"";"";"";"";"";"0.0-6.0-2.82";"";"";"2";"";"img2/Mjap/12.jpg";"";156074;"";342;"image-keyboard-response";"";""
"344";28;"condition1";"D";"J";"";"";"";"0.0-6.0-3.82";"d";"379";"3";"M";"Press S if the two images were the same, Press D if the two images were different.";"";156454;"";343;"html-keyboard-response";"";""
"345";28;"condition1";"";"";"";"";"";"0.0-6.0-0.83";"";"";"0";"";"img2/Mfrench/9.jpg";"";156704;"";344;"image-keyboard-response";"";""
"346";28;"condition1";"";"";"";"";"";"0.0-6.0-1.83";"";"";"1";"";"+";"";157012;"";345;"html-keyboard-response";"";""
"347";28;"condition1";"";"";"";"";"";"0.0-6.0-2.83";"";"";"2";"";"img2/Mfrench/13.jpg";"";157267;"";346;"image-keyboard-response";"";""
"348";28;"condition1";"D";"R";"";"";"";"0.0-6.0-3.83";"d";"486";"3";"M";"Press S if the two images were the same, Press D if the two images were different.";"";157754;"";347;"html-keyboard-response";"";""
"349";28;"condition1";"";"";"";"";"";"0.0-6.0-0.84";"";"";"0";"";"img2/faces/4.jpg";"";157967;"";348;"image-keyboard-response";"";""
"350";28;"condition1";"";"";"";"";"";"0.0-6.0-1.84";"";"";"1";"";"+";"";158276;"";349;"html-keyboard-response";"";""
"351";28;"condition1";"";"";"";"";"";"0.0-6.0-2.84";"";"";"2";"";"img2/faces/8.jpg";"";158492;"";350;"image-keyboard-response";"";""
"352";28;"condition1";"D";"H";"";"";"";"0.0-6.0-3.84";"d";"337";"3";"T";"Press S if the two images were the same, Press D if the two images were different.";"";158829;"";351;"html-keyboard-response";"";""
"353";28;"condition1";"";"";"";"";"";"0.0-6.0-0.85";"";"";"0";"";"img2/french/8.jpg";"";159042;"";352;"image-keyboard-response";"";""
"354";28;"condition1";"";"";"";"";"";"0.0-6.0-1.85";"";"";"1";"";"+";"";159357;"";353;"html-keyboard-response";"";""
"355";28;"condition1";"";"";"";"";"";"0.0-6.0-2.85";"";"";"2";"";"img2/Mfrench/8.jpg";"";159572;"";354;"image-keyboard-response";"";""
"356";28;"condition1";"S";"R";"";"";"";"0.0-6.0-3.85";"s";"381";"3";"M";"Press S if the two images were the same, Press D if the two images were different.";"";159955;"";355;"html-keyboard-response";"";""
"357";28;"condition1";"";"";"";"";"";"0.0-6.0-0.86";"";"";"0";"";"img2/Mtools/10.jpg";"";160163;"";356;"image-keyboard-response";"";""
"358";28;"condition1";"";"";"";"";"";"0.0-6.0-1.86";"";"";"1";"";"+";"";160467;"";357;"html-keyboard-response";"";""
"359";28;"condition1";"";"";"";"";"";"0.0-6.0-2.86";"";"";"2";"";"img2/Mtools/5.jpg";"";160680;"";358;"image-keyboard-response";"";""
"360";28;"condition1";"D";"O";"";"";"";"0.0-6.0-3.86";"d";"231";"3";"M";"Press S if the two images were the same, Press D if the two images were different.";"";160913;"";359;"html-keyboard-response";"";""
"361";28;"condition1";"";"";"";"";"";"0.0-6.0-0.87";"";"";"0";"";"img2/tools/13.jpg";"";161118;"";360;"image-keyboard-response";"";""
"362";28;"condition1";"";"";"";"";"";"0.0-6.0-1.87";"";"";"1";"";"+";"";161433;"";361;"html-keyboard-response";"";""
"363";28;"condition1";"";"";"";"";"";"0.0-6.0-2.87";"";"";"2";"";"img2/tools/10.jpg";"";161638;"";362;"image-keyboard-response";"";""
"364";28;"condition1";"D";"O";"";"";"";"0.0-6.0-3.87";"d";"517";"3";"T";"Press S if the two images were the same, Press D if the two images were different.";"";162157;"";363;"html-keyboard-response";"";""
"365";28;"condition1";"";"";"";"";"";"0.0-6.0-0.88";"";"";"0";"";"img2/french/4.jpg";"";162368;"";364;"image-keyboard-response";"";""
"366";28;"condition1";"";"";"";"";"";"0.0-6.0-1.88";"";"";"1";"";"+";"";162680;"";365;"html-keyboard-response";"";""
"367";28;"condition1";"";"";"";"";"";"0.0-6.0-2.88";"";"";"2";"";"img2/Mfrench/4.jpg";"";162926;"";366;"image-keyboard-response";"";""
"368";28;"condition1";"S";"R";"";"";"";"0.0-6.0-3.88";"s";"440";"3";"M";"Press S if the two images were the same, Press D if the two images were different.";"";163366;"";367;"html-keyboard-response";"";""
"369";28;"condition1";"";"";"";"";"";"0.0-6.0-0.89";"";"";"0";"";"img2/Mjap/3.jpg";"";163627;"";368;"image-keyboard-response";"";""
"370";28;"condition1";"";"";"";"";"";"0.0-6.0-1.89";"";"";"1";"";"+";"";163934;"";369;"html-keyboard-response";"";""
"371";28;"condition1";"";"";"";"";"";"0.0-6.0-2.89";"";"";"2";"";"img2/Mjap/2.jpg";"";164145;"";370;"image-keyboard-response";"";""
"372";28;"condition1";"D";"J";"";"";"";"0.0-6.0-3.89";"d";"438";"3";"M";"Press S if the two images were the same, Press D if the two images were different.";"";164583;"";371;"html-keyboard-response";"";""
"373";28;"condition1";"";"";"";"";"";"0.0-6.0-0.90";"";"";"0";"";"img2/jap/6.jpg";"";164785;"";372;"image-keyboard-response";"";""
"374";28;"condition1";"";"";"";"";"";"0.0-6.0-1.90";"";"";"1";"";"+";"";165094;"";373;"html-keyboard-response";"";""
"375";28;"condition1";"";"";"";"";"";"0.0-6.0-2.90";"";"";"2";"";"img2/Mjap/6.jpg";"";165298;"";374;"image-keyboard-response";"";""
"376";28;"condition1";"S";"J";"";"";"";"0.0-6.0-3.90";"d";"464";"3";"M";"Press S if the two images were the same, Press D if the two images were different.";"";165761;"";375;"html-keyboard-response";"";""
"377";28;"condition1";"";"";"";"";"";"0.0-6.0-0.91";"";"";"0";"";"img2/Mjap/11.jpg";"";166015;"";376;"image-keyboard-response";"";""
"378";28;"condition1";"";"";"";"";"";"0.0-6.0-1.91";"";"";"1";"";"+";"";166320;"";377;"html-keyboard-response";"";""
"379";28;"condition1";"";"";"";"";"";"0.0-6.0-2.91";"";"";"2";"";"img2/Mjap/13.jpg";"";166528;"";378;"image-keyboard-response";"";""
"380";28;"condition1";"D";"J";"";"";"";"0.0-6.0-3.91";"d";"429";"3";"M";"Press S if the two images were the same, Press D if the two images were different.";"";166957;"";379;"html-keyboard-response";"";""
"381";28;"condition1";"";"";"";"";"";"0.0-6.0-0.92";"";"";"0";"";"img2/Mjap/6.jpg";"";167167;"";380;"image-keyboard-response";"";""
"382";28;"condition1";"";"";"";"";"";"0.0-6.0-1.92";"";"";"1";"";"+";"";167478;"";381;"html-keyboard-response";"";""
"383";28;"condition1";"";"";"";"";"";"0.0-6.0-2.92";"";"";"2";"";"img2/Mjap/12.jpg";"";167691;"";382;"image-keyboard-response";"";""
"384";28;"condition1";"D";"J";"";"";"";"0.0-6.0-3.92";"d";"471";"3";"M";"Press S if the two images were the same, Press D if the two images were different.";"";168164;"";383;"html-keyboard-response";"";""
"385";28;"condition1";"";"";"";"";"";"0.0-6.0-0.93";"";"";"0";"";"img2/Mtools/8.jpg";"";168374;"";384;"image-keyboard-response";"";""
"386";28;"condition1";"";"";"";"";"";"0.0-6.0-1.93";"";"";"1";"";"+";"";168684;"";385;"html-keyboard-response";"";""
"387";28;"condition1";"";"";"";"";"";"0.0-6.0-2.93";"";"";"2";"";"img2/Mtools/12.jpg";"";168901;"";386;"image-keyboard-response";"";""
"388";28;"condition1";"D";"O";"";"";"";"0.0-6.0-3.93";"d";"465";"3";"M";"Press S if the two images were the same, Press D if the two images were different.";"";169367;"";387;"html-keyboard-response";"";""
"389";28;"condition1";"";"";"";"";"";"0.0-6.0-0.94";"";"";"0";"";"img2/jap/4.jpg";"";169604;"";388;"image-keyboard-response";"";""
"390";28;"condition1";"";"";"";"";"";"0.0-6.0-1.94";"";"";"1";"";"+";"";169919;"";389;"html-keyboard-response";"";""
"391";28;"condition1";"";"";"";"";"";"0.0-6.0-2.94";"";"";"2";"";"img2/jap/8.jpg";"";170150;"";390;"image-keyboard-response";"";""
"392";28;"condition1";"D";"J";"";"";"";"0.0-6.0-3.94";"d";"344";"3";"T";"Press S if the two images were the same, Press D if the two images were different.";"";170494;"";391;"html-keyboard-response";"";""
"393";28;"condition1";"";"";"";"";"";"0.0-6.0-0.95";"";"";"0";"";"img2/french/4.jpg";"";170705;"";392;"image-keyboard-response";"";""
"394";28;"condition1";"";"";"";"";"";"0.0-6.0-1.95";"";"";"1";"";"+";"";171017;"";393;"html-keyboard-response";"";""
"395";28;"condition1";"";"";"";"";"";"0.0-6.0-2.95";"";"";"2";"";"img2/french/8.jpg";"";171222;"";394;"image-keyboard-response";"";""
"396";28;"condition1";"D";"R";"";"";"";"0.0-6.0-3.95";"d";"395";"3";"T";"Press S if the two images were the same, Press D if the two images were different.";"";171618;"";395;"html-keyboard-response";"";""
"397";28;"condition1";"";"";"";"";"";"0.0-6.0-0.96";"";"";"0";"";"img2/faces/6.jpg";"";171823;"";396;"image-keyboard-response";"";""
"398";28;"condition1";"";"";"";"";"";"0.0-6.0-1.96";"";"";"1";"";"+";"";172133;"";397;"html-keyboard-response";"";""
"399";28;"condition1";"";"";"";"";"";"0.0-6.0-2.96";"";"";"2";"";"img2/faces/12.jpg";"";172363;"";398;"image-keyboard-response";"";""
"400";28;"condition1";"D";"H";"";"";"";"0.0-6.0-3.96";"d";"368";"3";"T";"Press S if the two images were the same, Press D if the two images were different.";"";172732;"";399;"html-keyboard-response";"";""
"401";28;"condition1";"";"";"";"";"";"0.0-6.0-0.97";"";"";"0";"";"img2/Mfaces/9.jpg";"";172963;"";400;"image-keyboard-response";"";""
"402";28;"condition1";"";"";"";"";"";"0.0-6.0-1.97";"";"";"1";"";"+";"";173274;"";401;"html-keyboard-response";"";""
"403";28;"condition1";"";"";"";"";"";"0.0-6.0-2.97";"";"";"2";"";"img2/Mfaces/13.jpg";"";173501;"";402;"image-keyboard-response";"";""
"404";28;"condition1";"D";"H";"";"";"";"0.0-6.0-3.97";"d";"424";"3";"M";"Press S if the two images were the same, Press D if the two images were different.";"";173926;"";403;"html-keyboard-response";"";""
"405";28;"condition1";"";"";"";"";"";"0.0-6.0-0.98";"";"";"0";"";"img2/faces/11.jpg";"";174156;"";404;"image-keyboard-response";"";""
"406";28;"condition1";"";"";"";"";"";"0.0-6.0-1.98";"";"";"1";"";"+";"";174460;"";405;"html-keyboard-response";"";""
"407";28;"condition1";"";"";"";"";"";"0.0-6.0-2.98";"";"";"2";"";"img2/faces/11.jpg";"";174665;"";406;"image-keyboard-response";"";""
"408";28;"condition1";"S";"H";"";"";"";"0.0-6.0-3.98";"s";"274";"3";"T";"Press S if the two images were the same, Press D if the two images were different.";"";174939;"";407;"html-keyboard-response";"";""
"409";28;"condition1";"";"";"";"";"";"0.0-6.0-0.99";"";"";"0";"";"img2/false/11.jpg";"";175182;"";408;"image-keyboard-response";"";""
"410";28;"condition1";"";"";"";"";"";"0.0-6.0-1.99";"";"";"1";"";"+";"";175486;"";409;"html-keyboard-response";"";""
"411";28;"condition1";"";"";"";"";"";"0.0-6.0-2.99";"";"";"2";"";"img2/false/13.jpg";"";175689;"";410;"image-keyboard-response";"";""
"412";28;"condition1";"D";"M";"";"";"";"0.0-6.0-3.99";"d";"370";"3";"T";"Press S if the two images were the same, Press D if the two images were different.";"";176060;"";411;"html-keyboard-response";"";""
"413";28;"condition1";"";"";"";"";"";"0.0-6.0-0.100";"";"";"0";"";"img2/false/4.jpg";"";176271;"";412;"image-keyboard-response";"";""
"414";28;"condition1";"";"";"";"";"";"0.0-6.0-1.100";"";"";"1";"";"+";"";176586;"";413;"html-keyboard-response";"";""
"415";28;"condition1";"";"";"";"";"";"0.0-6.0-2.100";"";"";"2";"";"img2/Mfalse/4.jpg";"";176833;"";414;"image-keyboard-response";"";""
"416";28;"condition1";"S";"M";"";"";"";"0.0-6.0-3.100";"d";"565";"3";"M";"Press S if the two images were the same, Press D if the two images were different.";"";177399;"";415;"html-keyboard-response";"";""
"417";28;"condition1";"";"";"";"";"";"0.0-6.0-0.101";"";"";"0";"";"img2/Mjap/12.jpg";"";177610;"";416;"image-keyboard-response";"";""
"418";28;"condition1";"";"";"";"";"";"0.0-6.0-1.101";"";"";"1";"";"+";"";177924;"";417;"html-keyboard-response";"";""
"419";28;"condition1";"";"";"";"";"";"0.0-6.0-2.101";"";"";"2";"";"img2/Mjap/3.jpg";"";178128;"";418;"image-keyboard-response";"";""
"420";28;"condition1";"D";"J";"";"";"";"0.0-6.0-3.101";"d";"475";"3";"M";"Press S if the two images were the same, Press D if the two images were different.";"";178605;"";419;"html-keyboard-response";"";""
"421";28;"condition1";"";"";"";"";"";"0.0-6.0-0.102";"";"";"0";"";"img2/jap/2.jpg";"";178854;"";420;"image-keyboard-response";"";""
"422";28;"condition1";"";"";"";"";"";"0.0-6.0-1.102";"";"";"1";"";"+";"";179166;"";421;"html-keyboard-response";"";""
"423";28;"condition1";"";"";"";"";"";"0.0-6.0-2.102";"";"";"2";"";"img2/jap/2.jpg";"";179374;"";422;"image-keyboard-response";"";""
"424";28;"condition1";"S";"J";"";"";"";"0.0-6.0-3.102";"s";"299";"3";"T";"Press S if the two images were the same, Press D if the two images were different.";"";179677;"";423;"html-keyboard-response";"";""
"425";28;"condition1";"";"";"";"";"";"0.0-6.0-0.103";"";"";"0";"";"img2/jap/10.jpg";"";179926;"";424;"image-keyboard-response";"";""
"426";28;"condition1";"";"";"";"";"";"0.0-6.0-1.103";"";"";"1";"";"+";"";180234;"";425;"html-keyboard-response";"";""
"427";28;"condition1";"";"";"";"";"";"0.0-6.0-2.103";"";"";"2";"";"img2/jap/5.jpg";"";180484;"";426;"image-keyboard-response";"";""
"428";28;"condition1";"D";"J";"";"";"";"0.0-6.0-3.103";"d";"362";"3";"T";"Press S if the two images were the same, Press D if the two images were different.";"";180848;"";427;"html-keyboard-response";"";""
"429";28;"condition1";"";"";"";"";"";"0.0-6.0-0.104";"";"";"0";"";"img2/false/8.jpg";"";181087;"";428;"image-keyboard-response";"";""
"430";28;"condition1";"";"";"";"";"";"0.0-6.0-1.104";"";"";"1";"";"+";"";181394;"";429;"html-keyboard-response";"";""
"431";28;"condition1";"";"";"";"";"";"0.0-6.0-2.104";"";"";"2";"";"img2/Mfalse/8.jpg";"";181641;"";430;"image-keyboard-response";"";""
"432";28;"condition1";"S";"M";"";"";"";"0.0-6.0-3.104";"d";"340";"3";"M";"Press S if the two images were the same, Press D if the two images were different.";"";181982;"";431;"html-keyboard-response";"";""
"433";28;"condition1";"";"";"";"";"";"0.0-6.0-0.105";"";"";"0";"";"img2/jap/8.jpg";"";182194;"";432;"image-keyboard-response";"";""
"434";28;"condition1";"";"";"";"";"";"0.0-6.0-1.105";"";"";"1";"";"+";"";182501;"";433;"html-keyboard-response";"";""
"435";28;"condition1";"";"";"";"";"";"0.0-6.0-2.105";"";"";"2";"";"img2/jap/12.jpg";"";182713;"";434;"image-keyboard-response";"";""
"436";28;"condition1";"D";"J";"";"";"";"0.0-6.0-3.105";"d";"487";"3";"T";"Press S if the two images were the same, Press D if the two images were different.";"";183202;"";435;"html-keyboard-response";"";""
"437";28;"condition1";"";"";"";"";"";"0.0-6.0-0.106";"";"";"0";"";"img2/jap/12.jpg";"";183410;"";436;"image-keyboard-response";"";""
"438";28;"condition1";"";"";"";"";"";"0.0-6.0-1.106";"";"";"1";"";"+";"";183719;"";437;"html-keyboard-response";"";""
"439";28;"condition1";"";"";"";"";"";"0.0-6.0-2.106";"";"";"2";"";"img2/jap/3.jpg";"";183959;"";438;"image-keyboard-response";"";""
"440";28;"condition1";"D";"J";"";"";"";"0.0-6.0-3.106";"d";"407";"3";"T";"Press S if the two images were the same, Press D if the two images were different.";"";184367;"";439;"html-keyboard-response";"";""
"441";28;"condition1";"";"";"";"";"";"0.0-6.0-0.107";"";"";"0";"";"img2/faces/14.jpg";"";184573;"";440;"image-keyboard-response";"";""
"442";28;"condition1";"";"";"";"";"";"0.0-6.0-1.107";"";"";"1";"";"+";"";184876;"";441;"html-keyboard-response";"";""
"443";28;"condition1";"";"";"";"";"";"0.0-6.0-2.107";"";"";"2";"";"img2/faces/14.jpg";"";185088;"";442;"image-keyboard-response";"";""
"444";28;"condition1";"S";"H";"";"";"";"0.0-6.0-3.107";"s";"318";"3";"T";"Press S if the two images were the same, Press D if the two images were different.";"";185407;"";443;"html-keyboard-response";"";""
"445";28;"condition1";"";"";"";"";"";"0.0-6.0-0.108";"";"";"0";"";"img2/faces/6.jpg";"";185613;"";444;"image-keyboard-response";"";""
"446";28;"condition1";"";"";"";"";"";"0.0-6.0-1.108";"";"";"1";"";"+";"";185926;"";445;"html-keyboard-response";"";""
"447";28;"condition1";"";"";"";"";"";"0.0-6.0-2.108";"";"";"2";"";"img2/faces/6.jpg";"";186136;"";446;"image-keyboard-response";"";""
"448";28;"condition1";"S";"H";"";"";"";"0.0-6.0-3.108";"s";"305";"3";"T";"Press S if the two images were the same, Press D if the two images were different.";"";186441;"";447;"html-keyboard-response";"";""
"449";28;"condition1";"";"";"";"";"";"0.0-6.0-0.109";"";"";"0";"";"img2/french/13.jpg";"";186673;"";448;"image-keyboard-response";"";""
"450";28;"condition1";"";"";"";"";"";"0.0-6.0-1.109";"";"";"1";"";"+";"";186986;"";449;"html-keyboard-response";"";""
"451";28;"condition1";"";"";"";"";"";"0.0-6.0-2.109";"";"";"2";"";"img2/french/10.jpg";"";187232;"";450;"image-keyboard-response";"";""
"452";28;"condition1";"D";"R";"";"";"";"0.0-6.0-3.109";"d";"374";"3";"T";"Press S if the two images were the same, Press D if the two images were different.";"";187608;"";451;"html-keyboard-response";"";""
"453";28;"condition1";"";"";"";"";"";"0.0-6.0-0.110";"";"";"0";"";"img2/jap/11.jpg";"";187857;"";452;"image-keyboard-response";"";""
"454";28;"condition1";"";"";"";"";"";"0.0-6.0-1.110";"";"";"1";"";"+";"";188169;"";453;"html-keyboard-response";"";""
"455";28;"condition1";"";"";"";"";"";"0.0-6.0-2.110";"";"";"2";"";"img2/Mjap/11.jpg";"";188382;"";454;"image-keyboard-response";"";""
"456";28;"condition1";"S";"J";"";"";"";"0.0-6.0-3.110";"s";"326";"3";"M";"Press S if the two images were the same, Press D if the two images were different.";"";188709;"";455;"html-keyboard-response";"";""
"457";28;"condition1";"";"";"";"";"";"0.0-6.0-0.111";"";"";"0";"";"img2/Mjap/7.jpg";"";188926;"";456;"image-keyboard-response";"";""
"458";28;"condition1";"";"";"";"";"";"0.0-6.0-1.111";"";"";"1";"";"+";"";189242;"";457;"html-keyboard-response";"";""
"459";28;"condition1";"";"";"";"";"";"0.0-6.0-2.111";"";"";"2";"";"img2/Mjap/6.jpg";"";189456;"";458;"image-keyboard-response";"";""
"460";28;"condition1";"D";"J";"";"";"";"0.0-6.0-3.111";"d";"425";"3";"M";"Press S if the two images were the same, Press D if the two images were different.";"";189882;"";459;"html-keyboard-response";"";""
"461";28;"condition1";"";"";"";"";"";"0.0-6.0-0.112";"";"";"0";"";"img2/Mfaces/5.jpg";"";190119;"";460;"image-keyboard-response";"";""
"462";28;"condition1";"";"";"";"";"";"0.0-6.0-1.112";"";"";"1";"";"+";"";190434;"";461;"html-keyboard-response";"";""
"463";28;"condition1";"";"";"";"";"";"0.0-6.0-2.112";"";"";"2";"";"img2/Mfaces/6.jpg";"";190637;"";462;"image-keyboard-response";"";""
"464";28;"condition1";"D";"H";"";"";"";"0.0-6.0-3.112";"d";"534";"3";"M";"Press S if the two images were the same, Press D if the two images were different.";"";191172;"";463;"html-keyboard-response";"";""
"465";28;"condition1";"";"";"";"";"";"0.0-6.0-0.113";"";"";"0";"";"img2/false/9.jpg";"";191411;"";464;"image-keyboard-response";"";""
"466";28;"condition1";"";"";"";"";"";"0.0-6.0-1.113";"";"";"1";"";"+";"";191713;"";465;"html-keyboard-response";"";""
"467";28;"condition1";"";"";"";"";"";"0.0-6.0-2.113";"";"";"2";"";"img2/false/9.jpg";"";191919;"";466;"image-keyboard-response";"";""
"468";28;"condition1";"S";"M";"";"";"";"0.0-6.0-3.113";"s";"387";"3";"T";"Press S if the two images were the same, Press D if the two images were different.";"";192306;"";467;"html-keyboard-response";"";""
"469";28;"condition1";"";"";"";"";"";"0.0-6.0-0.114";"";"";"0";"";"img2/faces/1.jpg";"";192514;"";468;"image-keyboard-response";"";""
"470";28;"condition1";"";"";"";"";"";"0.0-6.0-1.114";"";"";"1";"";"+";"";192828;"";469;"html-keyboard-response";"";""
"471";28;"condition1";"";"";"";"";"";"0.0-6.0-2.114";"";"";"2";"";"img2/faces/1.jpg";"";193031;"";470;"image-keyboard-response";"";""
"472";28;"condition1";"S";"H";"";"";"";"0.0-6.0-3.114";"s";"320";"3";"T";"Press S if the two images were the same, Press D if the two images were different.";"";193352;"";471;"html-keyboard-response";"";""
"473";28;"condition1";"";"";"";"";"";"0.0-6.0-0.115";"";"";"0";"";"img2/french/9.jpg";"";193587;"";472;"image-keyboard-response";"";""
"474";28;"condition1";"";"";"";"";"";"0.0-6.0-1.115";"";"";"1";"";"+";"";193889;"";473;"html-keyboard-response";"";""
"475";28;"condition1";"";"";"";"";"";"0.0-6.0-2.115";"";"";"2";"";"img2/french/13.jpg";"";194095;"";474;"image-keyboard-response";"";""
"476";28;"condition1";"D";"R";"";"";"";"0.0-6.0-3.115";"d";"346";"3";"T";"Press S if the two images were the same, Press D if the two images were different.";"";194443;"";475;"html-keyboard-response";"";""
"477";28;"condition1";"";"";"";"";"";"0.0-6.0-0.116";"";"";"0";"";"img2/tools/12.jpg";"";194653;"";476;"image-keyboard-response";"";""
"478";28;"condition1";"";"";"";"";"";"0.0-6.0-1.116";"";"";"1";"";"+";"";194972;"";477;"html-keyboard-response";"";""
"479";28;"condition1";"";"";"";"";"";"0.0-6.0-2.116";"";"";"2";"";"img2/tools/12.jpg";"";195176;"";478;"image-keyboard-response";"";""
"480";28;"condition1";"S";"O";"";"";"";"0.0-6.0-3.116";"s";"264";"3";"T";"Press S if the two images were the same, Press D if the two images were different.";"";195441;"";479;"html-keyboard-response";"";""
"481";28;"condition1";"";"";"";"";"";"0.0-6.0-0.117";"";"";"0";"";"img2/jap/9.jpg";"";195697;"";480;"image-keyboard-response";"";""
"482";28;"condition1";"";"";"";"";"";"0.0-6.0-1.117";"";"";"1";"";"+";"";196010;"";481;"html-keyboard-response";"";""
"483";28;"condition1";"";"";"";"";"";"0.0-6.0-2.117";"";"";"2";"";"img2/Mjap/9.jpg";"";196214;"";482;"image-keyboard-response";"";""
"484";28;"condition1";"S";"J";"";"";"";"0.0-6.0-3.117";"d";"454";"3";"M";"Press S if the two images were the same, Press D if the two images were different.";"";196669;"";483;"html-keyboard-response";"";""
"485";28;"condition1";"";"";"";"";"";"0.0-6.0-0.118";"";"";"0";"";"img2/Mtools/5.jpg";"";196878;"";484;"image-keyboard-response";"";""
"486";28;"condition1";"";"";"";"";"";"0.0-6.0-1.118";"";"";"1";"";"+";"";197199;"";485;"html-keyboard-response";"";""
"487";28;"condition1";"";"";"";"";"";"0.0-6.0-2.118";"";"";"2";"";"img2/Mtools/6.jpg";"";197411;"";486;"image-keyboard-response";"";""
"488";28;"condition1";"D";"O";"";"";"";"0.0-6.0-3.118";"d";"497";"3";"M";"Press S if the two images were the same, Press D if the two images were different.";"";197908;"";487;"html-keyboard-response";"";""
"489";28;"condition1";"";"";"";"";"";"0.0-6.0-0.119";"";"";"0";"";"img2/french/14.jpg";"";198146;"";488;"image-keyboard-response";"";""
"490";28;"condition1";"";"";"";"";"";"0.0-6.0-1.119";"";"";"1";"";"+";"";198447;"";489;"html-keyboard-response";"";""
"491";28;"condition1";"";"";"";"";"";"0.0-6.0-2.119";"";"";"2";"";"img2/french/7.jpg";"";198656;"";490;"image-keyboard-response";"";""
"492";28;"condition1";"D";"R";"";"";"";"0.0-6.0-3.119";"d";"440";"3";"T";"Press S if the two images were the same, Press D if the two images were different.";"";199098;"";491;"html-keyboard-response";"";""
"493";28;"condition1";"";"";"";"";"";"0.0-6.0-0.120";"";"";"0";"";"img2/tools/14.jpg";"";199312;"";492;"image-keyboard-response";"";""
"494";28;"condition1";"";"";"";"";"";"0.0-6.0-1.120";"";"";"1";"";"+";"";199617;"";493;"html-keyboard-response";"";""
"495";28;"condition1";"";"";"";"";"";"0.0-6.0-2.120";"";"";"2";"";"img2/tools/14.jpg";"";199831;"";494;"image-keyboard-response";"";""
"496";28;"condition1";"S";"O";"";"";"";"0.0-6.0-3.120";"s";"263";"3";"T";"Press S if the two images were the same, Press D if the two images were different.";"";200094;"";495;"html-keyboard-response";"";""
"497";28;"condition1";"";"";"";"";"";"0.0-6.0-0.121";"";"";"0";"";"img2/Mtools/7.jpg";"";200306;"";496;"image-keyboard-response";"";""
"498";28;"condition1";"";"";"";"";"";"0.0-6.0-1.121";"";"";"1";"";"+";"";200620;"";497;"html-keyboard-response";"";""
"499";28;"condition1";"";"";"";"";"";"0.0-6.0-2.121";"";"";"2";"";"img2/Mtools/6.jpg";"";200833;"";498;"image-keyboard-response";"";""
"500";28;"condition1";"D";"O";"";"";"";"0.0-6.0-3.121";"d";"368";"3";"M";"Press S if the two images were the same, Press D if the two images were different.";"";201201;"";499;"html-keyboard-response";"";""
"501";28;"condition1";"";"";"";"";"";"0.0-6.0-0.122";"";"";"0";"";"img2/false/8.jpg";"";201404;"";500;"image-keyboard-response";"";""
"502";28;"condition1";"";"";"";"";"";"0.0-6.0-1.122";"";"";"1";"";"+";"";201705;"";501;"html-keyboard-response";"";""
"503";28;"condition1";"";"";"";"";"";"0.0-6.0-2.122";"";"";"2";"";"img2/false/8.jpg";"";201908;"";502;"image-keyboard-response";"";""
"504";28;"condition1";"S";"M";"";"";"";"0.0-6.0-3.122";"s";"633";"3";"T";"Press S if the two images were the same, Press D if the two images were different.";"";202543;"";503;"html-keyboard-response";"";""
"505";28;"condition1";"";"";"";"";"";"0.0-6.0-0.123";"";"";"0";"";"img2/jap/14.jpg";"";202748;"";504;"image-keyboard-response";"";""
"506";28;"condition1";"";"";"";"";"";"0.0-6.0-1.123";"";"";"1";"";"+";"";203050;"";505;"html-keyboard-response";"";""
"507";28;"condition1";"";"";"";"";"";"0.0-6.0-2.123";"";"";"2";"";"img2/Mjap/14.jpg";"";203289;"";506;"image-keyboard-response";"";""
"508";28;"condition1";"S";"J";"";"";"";"0.0-6.0-3.123";"d";"527";"3";"M";"Press S if the two images were the same, Press D if the two images were different.";"";203817;"";507;"html-keyboard-response";"";""
"509";28;"condition1";"";"";"";"";"";"0.0-6.0-0.124";"";"";"0";"";"img2/false/1.jpg";"";204029;"";508;"image-keyboard-response";"";""
"510";28;"condition1";"";"";"";"";"";"0.0-6.0-1.124";"";"";"1";"";"+";"";204334;"";509;"html-keyboard-response";"";""
"511";28;"condition1";"";"";"";"";"";"0.0-6.0-2.124";"";"";"2";"";"img2/Mfalse/1.jpg";"";204580;"";510;"image-keyboard-response";"";""
"512";28;"condition1";"S";"M";"";"";"";"0.0-6.0-3.124";"d";"590";"3";"M";"Press S if the two images were the same, Press D if the two images were different.";"";205171;"";511;"html-keyboard-response";"";""
"513";28;"condition1";"";"";"";"";"";"0.0-6.0-0.125";"";"";"0";"";"img2/Mfaces/12.jpg";"";205374;"";512;"image-keyboard-response";"";""
"514";28;"condition1";"";"";"";"";"";"0.0-6.0-1.125";"";"";"1";"";"+";"";205686;"";513;"html-keyboard-response";"";""
"515";28;"condition1";"";"";"";"";"";"0.0-6.0-2.125";"";"";"2";"";"img2/Mfaces/3.jpg";"";205902;"";514;"image-keyboard-response";"";""
"516";28;"condition1";"D";"H";"";"";"";"0.0-6.0-3.125";"d";"676";"3";"M";"Press S if the two images were the same, Press D if the two images were different.";"";206578;"";515;"html-keyboard-response";"";""
"517";28;"condition1";"";"";"";"";"";"0.0-6.0-0.126";"";"";"0";"";"img2/jap/8.jpg";"";206786;"";516;"image-keyboard-response";"";""
"518";28;"condition1";"";"";"";"";"";"0.0-6.0-1.126";"";"";"1";"";"+";"";207097;"";517;"html-keyboard-response";"";""
"519";28;"condition1";"";"";"";"";"";"0.0-6.0-2.126";"";"";"2";"";"img2/Mjap/8.jpg";"";207300;"";518;"image-keyboard-response";"";""
"520";28;"condition1";"S";"J";"";"";"";"0.0-6.0-3.126";"d";"516";"3";"M";"Press S if the two images were the same, Press D if the two images were different.";"";207817;"";519;"html-keyboard-response";"";""
"521";28;"condition1";"";"";"";"";"";"0.0-6.0-0.127";"";"";"0";"";"img2/tools/3.jpg";"";208029;"";520;"image-keyboard-response";"";""
"522";28;"condition1";"";"";"";"";"";"0.0-6.0-1.127";"";"";"1";"";"+";"";208344;"";521;"html-keyboard-response";"";""
"523";28;"condition1";"";"";"";"";"";"0.0-6.0-2.127";"";"";"2";"";"img2/tools/3.jpg";"";208550;"";522;"image-keyboard-response";"";""
"524";28;"condition1";"S";"O";"";"";"";"0.0-6.0-3.127";"s";"284";"3";"T";"Press S if the two images were the same, Press D if the two images were different.";"";208836;"";523;"html-keyboard-response";"";""
"525";28;"condition1";"";"";"";"";"";"0.0-6.0-0.128";"";"";"0";"";"img2/false/4.jpg";"";209052;"";524;"image-keyboard-response";"";""
"526";28;"condition1";"";"";"";"";"";"0.0-6.0-1.128";"";"";"1";"";"+";"";209367;"";525;"html-keyboard-response";"";""
"527";28;"condition1";"";"";"";"";"";"0.0-6.0-2.128";"";"";"2";"";"img2/false/8.jpg";"";209583;"";526;"image-keyboard-response";"";""
"528";28;"condition1";"D";"M";"";"";"";"0.0-6.0-3.128";"d";"482";"3";"T";"Press S if the two images were the same, Press D if the two images were different.";"";210066;"";527;"html-keyboard-response";"";""
"529";28;"condition1";"";"";"";"";"";"0.0-6.0-0.129";"";"";"0";"";"img2/french/14.jpg";"";210282;"";528;"image-keyboard-response";"";""
"530";28;"condition1";"";"";"";"";"";"0.0-6.0-1.129";"";"";"1";"";"+";"";210587;"";529;"html-keyboard-response";"";""
"531";28;"condition1";"";"";"";"";"";"0.0-6.0-2.129";"";"";"2";"";"img2/Mfrench/14.jpg";"";210832;"";530;"image-keyboard-response";"";""
"532";28;"condition1";"S";"R";"";"";"";"0.0-6.0-3.129";"d";"531";"3";"M";"Press S if the two images were the same, Press D if the two images were different.";"";211363;"";531;"html-keyboard-response";"";""
"533";28;"condition1";"";"";"";"";"";"0.0-6.0-0.130";"";"";"0";"";"img2/false/3.jpg";"";211570;"";532;"image-keyboard-response";"";""
"534";28;"condition1";"";"";"";"";"";"0.0-6.0-1.130";"";"";"1";"";"+";"";211879;"";533;"html-keyboard-response";"";""
"535";28;"condition1";"";"";"";"";"";"0.0-6.0-2.130";"";"";"2";"";"img2/false/2.jpg";"";212128;"";534;"image-keyboard-response";"";""
"536";28;"condition1";"D";"M";"";"";"";"0.0-6.0-3.130";"d";"494";"3";"T";"Press S if the two images were the same, Press D if the two images were different.";"";212622;"";535;"html-keyboard-response";"";""
"537";28;"condition1";"";"";"";"";"";"0.0-6.0-0.131";"";"";"0";"";"img2/Mfaces/1.jpg";"";212845;"";536;"image-keyboard-response";"";""
"538";28;"condition1";"";"";"";"";"";"0.0-6.0-1.131";"";"";"1";"";"+";"";213160;"";537;"html-keyboard-response";"";""
"539";28;"condition1";"";"";"";"";"";"0.0-6.0-2.131";"";"";"2";"";"img2/Mfaces/10.jpg";"";213399;"";538;"image-keyboard-response";"";""
"540";28;"condition1";"D";"H";"";"";"";"0.0-6.0-3.131";"d";"358";"3";"M";"Press S if the two images were the same, Press D if the two images were different.";"";213758;"";539;"html-keyboard-response";"";""
"541";28;"condition1";"";"";"";"";"";"0.0-6.0-0.132";"";"";"0";"";"img2/faces/13.jpg";"";213988;"";540;"image-keyboard-response";"";""
"542";28;"condition1";"";"";"";"";"";"0.0-6.0-1.132";"";"";"1";"";"+";"";214292;"";541;"html-keyboard-response";"";""
"543";28;"condition1";"";"";"";"";"";"0.0-6.0-2.132";"";"";"2";"";"img2/faces/10.jpg";"";214506;"";542;"image-keyboard-response";"";""
"544";28;"condition1";"D";"H";"";"";"";"0.0-6.0-3.132";"d";"385";"3";"T";"Press S if the two images were the same, Press D if the two images were different.";"";214892;"";543;"html-keyboard-response";"";""
"545";28;"condition1";"";"";"";"";"";"0.0-6.0-0.133";"";"";"0";"";"img2/faces/8.jpg";"";215106;"";544;"image-keyboard-response";"";""
"546";28;"condition1";"";"";"";"";"";"0.0-6.0-1.133";"";"";"1";"";"+";"";215408;"";545;"html-keyboard-response";"";""
"547";28;"condition1";"";"";"";"";"";"0.0-6.0-2.133";"";"";"2";"";"img2/faces/12.jpg";"";215622;"";546;"image-keyboard-response";"";""
"548";28;"condition1";"D";"H";"";"";"";"0.0-6.0-3.133";"d";"374";"3";"T";"Press S if the two images were the same, Press D if the two images were different.";"";215997;"";547;"html-keyboard-response";"";""
"549";28;"condition1";"";"";"";"";"";"0.0-6.0-0.134";"";"";"0";"";"img2/french/2.jpg";"";216244;"";548;"image-keyboard-response";"";""
"550";28;"condition1";"";"";"";"";"";"0.0-6.0-1.134";"";"";"1";"";"+";"";216556;"";549;"html-keyboard-response";"";""
"551";28;"condition1";"";"";"";"";"";"0.0-6.0-2.134";"";"";"2";"";"img2/french/2.jpg";"";216765;"";550;"image-keyboard-response";"";""
"552";28;"condition1";"S";"R";"";"";"";"0.0-6.0-3.134";"s";"362";"3";"T";"Press S if the two images were the same, Press D if the two images were different.";"";217128;"";551;"html-keyboard-response";"";""
"553";28;"condition1";"";"";"";"";"";"0.0-6.0-0.135";"";"";"0";"";"img2/false/10.jpg";"";217342;"";552;"image-keyboard-response";"";""
"554";28;"condition1";"";"";"";"";"";"0.0-6.0-1.135";"";"";"1";"";"+";"";217655;"";553;"html-keyboard-response";"";""
"555";28;"condition1";"";"";"";"";"";"0.0-6.0-2.135";"";"";"2";"";"img2/Mfalse/10.jpg";"";217913;"";554;"image-keyboard-response";"";""
"556";28;"condition1";"S";"M";"";"";"";"0.0-6.0-3.135";"d";"365";"3";"M";"Press S if the two images were the same, Press D if the two images were different.";"";218279;"";555;"html-keyboard-response";"";""
"557";28;"condition1";"";"";"";"";"";"0.0-6.0-0.136";"";"";"0";"";"img2/tools/9.jpg";"";218494;"";556;"image-keyboard-response";"";""
"558";28;"condition1";"";"";"";"";"";"0.0-6.0-1.136";"";"";"1";"";"+";"";218809;"";557;"html-keyboard-response";"";""
"559";28;"condition1";"";"";"";"";"";"0.0-6.0-2.136";"";"";"2";"";"img2/tools/9.jpg";"";219018;"";558;"image-keyboard-response";"";""
"560";28;"condition1";"S";"O";"";"";"";"0.0-6.0-3.136";"d";"536";"3";"T";"Press S if the two images were the same, Press D if the two images were different.";"";219556;"";559;"html-keyboard-response";"";""
"561";28;"condition1";"";"";"";"";"";"0.0-6.0-0.137";"";"";"0";"";"img2/Mfalse/1.jpg";"";219766;"";560;"image-keyboard-response";"";""
"562";28;"condition1";"";"";"";"";"";"0.0-6.0-1.137";"";"";"1";"";"+";"";220075;"";561;"html-keyboard-response";"";""
"563";28;"condition1";"";"";"";"";"";"0.0-6.0-2.137";"";"";"2";"";"img2/Mfalse/10.jpg";"";220287;"";562;"image-keyboard-response";"";""
"564";28;"condition1";"D";"M";"";"";"";"0.0-6.0-3.137";"s";"1038";"3";"M";"Press S if the two images were the same, Press D if the two images were different.";"";221326;"";563;"html-keyboard-response";"";""
"565";28;"condition1";"";"";"";"";"";"0.0-6.0-0.138";"";"";"0";"";"img2/jap/7.jpg";"";221536;"";564;"image-keyboard-response";"";""
"566";28;"condition1";"";"";"";"";"";"0.0-6.0-1.138";"";"";"1";"";"+";"";221848;"";565;"html-keyboard-response";"";""
"567";28;"condition1";"";"";"";"";"";"0.0-6.0-2.138";"";"";"2";"";"img2/jap/7.jpg";"";222057;"";566;"image-keyboard-response";"";""
"568";28;"condition1";"S";"J";"";"";"";"0.0-6.0-3.138";"s";"363";"3";"T";"Press S if the two images were the same, Press D if the two images were different.";"";222421;"";567;"html-keyboard-response";"";""
"569";28;"condition1";"";"";"";"";"";"0.0-6.0-0.139";"";"";"0";"";"img2/false/12.jpg";"";222630;"";568;"image-keyboard-response";"";""
"570";28;"condition1";"";"";"";"";"";"0.0-6.0-1.139";"";"";"1";"";"+";"";222932;"";569;"html-keyboard-response";"";""
"571";28;"condition1";"";"";"";"";"";"0.0-6.0-2.139";"";"";"2";"";"img2/Mfalse/12.jpg";"";223142;"";570;"image-keyboard-response";"";""
"572";28;"condition1";"S";"M";"";"";"";"0.0-6.0-3.139";"d";"419";"3";"M";"Press S if the two images were the same, Press D if the two images were different.";"";223564;"";571;"html-keyboard-response";"";""
"573";28;"condition1";"";"";"";"";"";"0.0-6.0-0.140";"";"";"0";"";"img2/tools/3.jpg";"";223771;"";572;"image-keyboard-response";"";""
"574";28;"condition1";"";"";"";"";"";"0.0-6.0-1.140";"";"";"1";"";"+";"";224088;"";573;"html-keyboard-response";"";""
"575";28;"condition1";"";"";"";"";"";"0.0-6.0-2.140";"";"";"2";"";"img2/tools/2.jpg";"";224310;"";574;"image-keyboard-response";"";""
"576";28;"condition1";"D";"O";"";"";"";"0.0-6.0-3.140";"d";"434";"3";"T";"Press S if the two images were the same, Press D if the two images were different.";"";224745;"";575;"html-keyboard-response";"";""
"577";28;"condition1";"";"";"";"";"";"0.0-6.0-0.141";"";"";"0";"";"img2/false/13.jpg";"";224959;"";576;"image-keyboard-response";"";""
"578";28;"condition1";"";"";"";"";"";"0.0-6.0-1.141";"";"";"1";"";"+";"";225274;"";577;"html-keyboard-response";"";""
"579";28;"condition1";"";"";"";"";"";"0.0-6.0-2.141";"";"";"2";"";"img2/false/10.jpg";"";225485;"";578;"image-keyboard-response";"";""
"580";28;"condition1";"D";"M";"";"";"";"0.0-6.0-3.141";"d";"487";"3";"T";"Press S if the two images were the same, Press D if the two images were different.";"";225972;"";579;"html-keyboard-response";"";""
"581";28;"condition1";"";"";"";"";"";"0.0-6.0-0.142";"";"";"0";"";"img2/Mfrench/1.jpg";"";226193;"";580;"image-keyboard-response";"";""
"582";28;"condition1";"";"";"";"";"";"0.0-6.0-1.142";"";"";"1";"";"+";"";226511;"";581;"html-keyboard-response";"";""
"583";28;"condition1";"";"";"";"";"";"0.0-6.0-2.142";"";"";"2";"";"img2/Mfrench/10.jpg";"";226767;"";582;"image-keyboard-response";"";""
"584";28;"condition1";"D";"R";"";"";"";"0.0-6.0-3.142";"d";"1351";"3";"M";"Press S if the two images were the same, Press D if the two images were different.";"";228119;"";583;"html-keyboard-response";"";""
"585";28;"condition1";"";"";"";"";"";"0.0-6.0-0.143";"";"";"0";"";"img2/faces/9.jpg";"";228346;"";584;"image-keyboard-response";"";""
"586";28;"condition1";"";"";"";"";"";"0.0-6.0-1.143";"";"";"1";"";"+";"";228661;"";585;"html-keyboard-response";"";""
"587";28;"condition1";"";"";"";"";"";"0.0-6.0-2.143";"";"";"2";"";"img2/faces/13.jpg";"";228870;"";586;"image-keyboard-response";"";""
"588";28;"condition1";"D";"H";"";"";"";"0.0-6.0-3.143";"d";"497";"3";"T";"Press S if the two images were the same, Press D if the two images were different.";"";229368;"";587;"html-keyboard-response";"";""
"589";28;"condition1";"";"";"";"";"";"0.0-6.0-0.144";"";"";"0";"";"img2/false/12.jpg";"";229574;"";588;"image-keyboard-response";"";""
"590";28;"condition1";"";"";"";"";"";"0.0-6.0-1.144";"";"";"1";"";"+";"";229890;"";589;"html-keyboard-response";"";""
"591";28;"condition1";"";"";"";"";"";"0.0-6.0-2.144";"";"";"2";"";"img2/false/12.jpg";"";230096;"";590;"image-keyboard-response";"";""
"592";28;"condition1";"S";"M";"";"";"";"0.0-6.0-3.144";"s";"337";"3";"T";"Press S if the two images were the same, Press D if the two images were different.";"";230434;"";591;"html-keyboard-response";"";""
"593";28;"condition1";"";"";"";"";"";"0.0-6.0-0.145";"";"";"0";"";"img2/false/3.jpg";"";230640;"";592;"image-keyboard-response";"";""
"594";28;"condition1";"";"";"";"";"";"0.0-6.0-1.145";"";"";"1";"";"+";"";230949;"";593;"html-keyboard-response";"";""
"595";28;"condition1";"";"";"";"";"";"0.0-6.0-2.145";"";"";"2";"";"img2/false/3.jpg";"";231157;"";594;"image-keyboard-response";"";""
"596";28;"condition1";"S";"M";"";"";"";"0.0-6.0-3.145";"s";"430";"3";"T";"Press S if the two images were the same, Press D if the two images were different.";"";231589;"";595;"html-keyboard-response";"";""
"597";28;"condition1";"";"";"";"";"";"0.0-6.0-0.146";"";"";"0";"";"img2/false/7.jpg";"";231829;"";596;"image-keyboard-response";"";""
"598";28;"condition1";"";"";"";"";"";"0.0-6.0-1.146";"";"";"1";"";"+";"";232144;"";597;"html-keyboard-response";"";""
"599";28;"condition1";"";"";"";"";"";"0.0-6.0-2.146";"";"";"2";"";"img2/Mfalse/7.jpg";"";232379;"";598;"image-keyboard-response";"";""
"600";28;"condition1";"S";"M";"";"";"";"0.0-6.0-3.146";"d";"369";"3";"M";"Press S if the two images were the same, Press D if the two images were different.";"";232748;"";599;"html-keyboard-response";"";""
"601";28;"condition1";"";"";"";"";"";"0.0-6.0-0.147";"";"";"0";"";"img2/french/10.jpg";"";232963;"";600;"image-keyboard-response";"";""
"602";28;"condition1";"";"";"";"";"";"0.0-6.0-1.147";"";"";"1";"";"+";"";233276;"";601;"html-keyboard-response";"";""
"603";28;"condition1";"";"";"";"";"";"0.0-6.0-2.147";"";"";"2";"";"img2/french/5.jpg";"";233511;"";602;"image-keyboard-response";"";""
"604";28;"condition1";"D";"R";"";"";"";"0.0-6.0-3.147";"d";"410";"3";"T";"Press S if the two images were the same, Press D if the two images were different.";"";233922;"";603;"html-keyboard-response";"";""
"605";28;"condition1";"";"";"";"";"";"0.0-6.0-0.148";"";"";"0";"";"img2/false/2.jpg";"";234128;"";604;"image-keyboard-response";"";""
"606";28;"condition1";"";"";"";"";"";"0.0-6.0-1.148";"";"";"1";"";"+";"";234431;"";605;"html-keyboard-response";"";""
"607";28;"condition1";"";"";"";"";"";"0.0-6.0-2.148";"";"";"2";"";"img2/false/2.jpg";"";234642;"";606;"image-keyboard-response";"";""
"608";28;"condition1";"S";"M";"";"";"";"0.0-6.0-3.148";"s";"391";"3";"T";"Press S if the two images were the same, Press D if the two images were different.";"";235034;"";607;"html-keyboard-response";"";""
"609";28;"condition1";"";"";"";"";"";"0.0-6.0-0.149";"";"";"0";"";"img2/Mfaces/7.jpg";"";235261;"";608;"image-keyboard-response";"";""
"610";28;"condition1";"";"";"";"";"";"0.0-6.0-1.149";"";"";"1";"";"+";"";235564;"";609;"html-keyboard-response";"";""
"611";28;"condition1";"";"";"";"";"";"0.0-6.0-2.149";"";"";"2";"";"img2/Mfaces/6.jpg";"";235776;"";610;"image-keyboard-response";"";""
"612";28;"condition1";"D";"H";"";"";"";"0.0-6.0-3.149";"d";"448";"3";"M";"Press S if the two images were the same, Press D if the two images were different.";"";236225;"";611;"html-keyboard-response";"";""
"613";28;"condition1";"";"";"";"";"";"0.0-6.0-0.150";"";"";"0";"";"img2/tools/5.jpg";"";236431;"";612;"image-keyboard-response";"";""
"614";28;"condition1";"";"";"";"";"";"0.0-6.0-1.150";"";"";"1";"";"+";"";236738;"";613;"html-keyboard-response";"";""
"615";28;"condition1";"";"";"";"";"";"0.0-6.0-2.150";"";"";"2";"";"img2/tools/5.jpg";"";236941;"";614;"image-keyboard-response";"";""
"616";28;"condition1";"S";"O";"";"";"";"0.0-6.0-3.150";"s";"311";"3";"T";"Press S if the two images were the same, Press D if the two images were different.";"";237253;"";615;"html-keyboard-response";"";""
"617";28;"condition1";"";"";"";"";"";"0.0-6.0-0.151";"";"";"0";"";"img2/tools/7.jpg";"";237460;"";616;"image-keyboard-response";"";""
"618";28;"condition1";"";"";"";"";"";"0.0-6.0-1.151";"";"";"1";"";"+";"";237765;"";617;"html-keyboard-response";"";""
"619";28;"condition1";"";"";"";"";"";"0.0-6.0-2.151";"";"";"2";"";"img2/tools/7.jpg";"";237977;"";618;"image-keyboard-response";"";""
"620";28;"condition1";"S";"O";"";"";"";"0.0-6.0-3.151";"s";"329";"3";"T";"Press S if the two images were the same, Press D if the two images were different.";"";238306;"";619;"html-keyboard-response";"";""
"621";28;"condition1";"";"";"";"";"";"0.0-6.0-0.152";"";"";"0";"";"img2/Mfaces/11.jpg";"";238538;"";620;"image-keyboard-response";"";""
"622";28;"condition1";"";"";"";"";"";"0.0-6.0-1.152";"";"";"1";"";"+";"";238841;"";621;"html-keyboard-response";"";""
"623";28;"condition1";"";"";"";"";"";"0.0-6.0-2.152";"";"";"2";"";"img2/Mfaces/13.jpg";"";239050;"";622;"image-keyboard-response";"";""
"624";28;"condition1";"D";"H";"";"";"";"0.0-6.0-3.152";"d";"351";"3";"M";"Press S if the two images were the same, Press D if the two images were different.";"";239403;"";623;"html-keyboard-response";"";""
"625";28;"condition1";"";"";"";"";"";"0.0-6.0-0.153";"";"";"0";"";"img2/faces/14.jpg";"";239611;"";624;"image-keyboard-response";"";""
"626";28;"condition1";"";"";"";"";"";"0.0-6.0-1.153";"";"";"1";"";"+";"";239919;"";625;"html-keyboard-response";"";""
"627";28;"condition1";"";"";"";"";"";"0.0-6.0-2.153";"";"";"2";"";"img2/Mfaces/14.jpg";"";240154;"";626;"image-keyboard-response";"";""
"628";28;"condition1";"S";"H";"";"";"";"0.0-6.0-3.153";"s";"467";"3";"M";"Press S if the two images were the same, Press D if the two images were different.";"";240620;"";627;"html-keyboard-response";"";""
"629";28;"condition1";"";"";"";"";"";"0.0-6.0-0.154";"";"";"0";"";"img2/faces/3.jpg";"";240837;"";628;"image-keyboard-response";"";""
"630";28;"condition1";"";"";"";"";"";"0.0-6.0-1.154";"";"";"1";"";"+";"";241144;"";629;"html-keyboard-response";"";""
"631";28;"condition1";"";"";"";"";"";"0.0-6.0-2.154";"";"";"2";"";"img2/faces/3.jpg";"";241350;"";630;"image-keyboard-response";"";""
"632";28;"condition1";"S";"H";"";"";"";"0.0-6.0-3.154";"s";"346";"3";"T";"Press S if the two images were the same, Press D if the two images were different.";"";241697;"";631;"html-keyboard-response";"";""
"633";28;"condition1";"";"";"";"";"";"0.0-6.0-0.155";"";"";"0";"";"img2/false/10.jpg";"";241902;"";632;"image-keyboard-response";"";""
"634";28;"condition1";"";"";"";"";"";"0.0-6.0-1.155";"";"";"1";"";"+";"";242214;"";633;"html-keyboard-response";"";""
"635";28;"condition1";"";"";"";"";"";"0.0-6.0-2.155";"";"";"2";"";"img2/false/10.jpg";"";242428;"";634;"image-keyboard-response";"";""
"636";28;"condition1";"S";"M";"";"";"";"0.0-6.0-3.155";"s";"322";"3";"T";"Press S if the two images were the same, Press D if the two images were different.";"";242750;"";635;"html-keyboard-response";"";""
"637";28;"condition1";"";"";"";"";"";"0.0-6.0-0.156";"";"";"0";"";"img2/french/12.jpg";"";242991;"";636;"image-keyboard-response";"";""
"638";28;"condition1";"";"";"";"";"";"0.0-6.0-1.156";"";"";"1";"";"+";"";243303;"";637;"html-keyboard-response";"";""
"639";28;"condition1";"";"";"";"";"";"0.0-6.0-2.156";"";"";"2";"";"img2/french/3.jpg";"";243544;"";638;"image-keyboard-response";"";""
"640";28;"condition1";"D";"R";"";"";"";"0.0-6.0-3.156";"d";"404";"3";"T";"Press S if the two images were the same, Press D if the two images were different.";"";243950;"";639;"html-keyboard-response";"";""
"641";28;"condition1";"";"";"";"";"";"0.0-6.0-0.157";"";"";"0";"";"img2/Mtools/9.jpg";"";244169;"";640;"image-keyboard-response";"";""
"642";28;"condition1";"";"";"";"";"";"0.0-6.0-1.157";"";"";"1";"";"+";"";244473;"";641;"html-keyboard-response";"";""
"643";28;"condition1";"";"";"";"";"";"0.0-6.0-2.157";"";"";"2";"";"img2/Mtools/13.jpg";"";244687;"";642;"image-keyboard-response";"";""
"644";28;"condition1";"D";"O";"";"";"";"0.0-6.0-3.157";"d";"451";"3";"M";"Press S if the two images were the same, Press D if the two images were different.";"";245139;"";643;"html-keyboard-response";"";""
"645";28;"condition1";"";"";"";"";"";"0.0-6.0-0.158";"";"";"0";"";"img2/Mfrench/13.jpg";"";245380;"";644;"image-keyboard-response";"";""
"646";28;"condition1";"";"";"";"";"";"0.0-6.0-1.158";"";"";"1";"";"+";"";245683;"";645;"html-keyboard-response";"";""
"647";28;"condition1";"";"";"";"";"";"0.0-6.0-2.158";"";"";"2";"";"img2/Mfrench/10.jpg";"";245888;"";646;"image-keyboard-response";"";""
"648";28;"condition1";"D";"R";"";"";"";"0.0-6.0-3.158";"s";"372";"3";"M";"Press S if the two images were the same, Press D if the two images were different.";"";246260;"";647;"html-keyboard-response";"";""
"649";28;"condition1";"";"";"";"";"";"0.0-6.0-0.159";"";"";"0";"";"img2/tools/2.jpg";"";246468;"";648;"image-keyboard-response";"";""
"650";28;"condition1";"";"";"";"";"";"0.0-6.0-1.159";"";"";"1";"";"+";"";246777;"";649;"html-keyboard-response";"";""
"651";28;"condition1";"";"";"";"";"";"0.0-6.0-2.159";"";"";"2";"";"img2/tools/2.jpg";"";246990;"";650;"image-keyboard-response";"";""
"652";28;"condition1";"S";"O";"";"";"";"0.0-6.0-3.159";"s";"355";"3";"T";"Press S if the two images were the same, Press D if the two images were different.";"";247346;"";651;"html-keyboard-response";"";""
"653";28;"condition1";"";"";"";"";"";"0.0-6.0-0.160";"";"";"0";"";"img2/faces/1.jpg";"";247554;"";652;"image-keyboard-response";"";""
"654";28;"condition1";"";"";"";"";"";"0.0-6.0-1.160";"";"";"1";"";"+";"";247867;"";653;"html-keyboard-response";"";""
"655";28;"condition1";"";"";"";"";"";"0.0-6.0-2.160";"";"";"2";"";"img2/Mfaces/1.jpg";"";248081;"";654;"image-keyboard-response";"";""
"656";28;"condition1";"S";"H";"";"";"";"0.0-6.0-3.160";"s";"371";"3";"M";"Press S if the two images were the same, Press D if the two images were different.";"";248453;"";655;"html-keyboard-response";"";""
"657";28;"condition1";"";"";"";"";"";"0.0-6.0-0.161";"";"";"0";"";"img2/faces/13.jpg";"";248659;"";656;"image-keyboard-response";"";""
"658";28;"condition1";"";"";"";"";"";"0.0-6.0-1.161";"";"";"1";"";"+";"";248963;"";657;"html-keyboard-response";"";""
"659";28;"condition1";"";"";"";"";"";"0.0-6.0-2.161";"";"";"2";"";"img2/faces/13.jpg";"";249164;"";658;"image-keyboard-response";"";""
"660";28;"condition1";"S";"H";"";"";"";"0.0-6.0-3.161";"s";"580";"3";"T";"Press S if the two images were the same, Press D if the two images were different.";"";249746;"";659;"html-keyboard-response";"";""
"661";28;"condition1";"";"";"";"";"";"0.0-6.0-0.162";"";"";"0";"";"img2/tools/11.jpg";"";249960;"";660;"image-keyboard-response";"";""
"662";28;"condition1";"";"";"";"";"";"0.0-6.0-1.162";"";"";"1";"";"+";"";250266;"";661;"html-keyboard-response";"";""
"663";28;"condition1";"";"";"";"";"";"0.0-6.0-2.162";"";"";"2";"";"img2/tools/11.jpg";"";250481;"";662;"image-keyboard-response";"";""
"664";28;"condition1";"S";"O";"";"";"";"0.0-6.0-3.162";"s";"307";"3";"T";"Press S if the two images were the same, Press D if the two images were different.";"";250788;"";663;"html-keyboard-response";"";""
"665";28;"condition1";"";"";"";"";"";"0.0-6.0-0.163";"";"";"0";"";"img2/french/7.jpg";"";250993;"";664;"image-keyboard-response";"";""
"666";28;"condition1";"";"";"";"";"";"0.0-6.0-1.163";"";"";"1";"";"+";"";251298;"";665;"html-keyboard-response";"";""
"667";28;"condition1";"";"";"";"";"";"0.0-6.0-2.163";"";"";"2";"";"img2/french/7.jpg";"";251509;"";666;"image-keyboard-response";"";""
"668";28;"condition1";"S";"R";"";"";"";"0.0-6.0-3.163";"s";"402";"3";"T";"Press S if the two images were the same, Press D if the two images were different.";"";251913;"";667;"html-keyboard-response";"";""
"669";28;"condition1";"";"";"";"";"";"0.0-6.0-0.164";"";"";"0";"";"img2/Mfaces/2.jpg";"";252136;"";668;"image-keyboard-response";"";""
"670";28;"condition1";"";"";"";"";"";"0.0-6.0-1.164";"";"";"1";"";"+";"";252449;"";669;"html-keyboard-response";"";""
"671";28;"condition1";"";"";"";"";"";"0.0-6.0-2.164";"";"";"2";"";"img2/Mfaces/8.jpg";"";252677;"";670;"image-keyboard-response";"";""
"672";28;"condition1";"D";"H";"";"";"";"0.0-6.0-3.164";"d";"389";"3";"M";"Press S if the two images were the same, Press D if the two images were different.";"";253069;"";671;"html-keyboard-response";"";""
"673";28;"condition1";"";"";"";"";"";"0.0-6.0-0.165";"";"";"0";"";"img2/french/10.jpg";"";253283;"";672;"image-keyboard-response";"";""
"674";28;"condition1";"";"";"";"";"";"0.0-6.0-1.165";"";"";"1";"";"+";"";253590;"";673;"html-keyboard-response";"";""
"675";28;"condition1";"";"";"";"";"";"0.0-6.0-2.165";"";"";"2";"";"img2/Mfrench/10.jpg";"";253795;"";674;"image-keyboard-response";"";""
"676";28;"condition1";"S";"R";"";"";"";"0.0-6.0-3.165";"s";"424";"3";"M";"Press S if the two images were the same, Press D if the two images were different.";"";254220;"";675;"html-keyboard-response";"";""
"677";28;"condition1";"";"";"";"";"";"0.0-6.0-0.166";"";"";"0";"";"img2/jap/3.jpg";"";254432;"";676;"image-keyboard-response";"";""
"678";28;"condition1";"";"";"";"";"";"0.0-6.0-1.166";"";"";"1";"";"+";"";254740;"";677;"html-keyboard-response";"";""
