workerid,proliferate.condition,0,1,failed_audio,failed_images,failed_video,internal_node_id,response,rt,stimulus,success,time_elapsed,timeout,trial_index,trial_type,view_history,error
28,condition1,,,[],[],[],0.0-0.0,,,,True,3780,False,0,preload,,
28,condition1,,,,,,0.0-1.0,,44702,,,48483,,1,instructions,"[{'page_index': 0, 'viewing_time': 13198}, {'page_index': 1, 'viewing_time': 16455}, {'page_index': 2, 'viewing_time': 12459}, {'page_index': 3, 'viewing_time': 2590}]",
28,condition1,,,,,,0.0-2.0-0.0,,,img2/tools/2.jpg,,48704,,2,image-keyboard-response,,
28,condition1,,,,,,0.0-2.0-1.0,,,+,,49020,,3,html-keyboard-response,,
28,condition1,,,,,,0.0-2.0-2.0,,,img2/Mtools/2.jpg,,49241,,4,image-keyboard-response,,
28,condition1,,,,,,0.0-2.0-3.0,s,1401,"Press S if the two images were the same, Press D if the two images were different.",,50642,,5,html-keyboard-response,,
28,condition1,,,,,,0.0-3.0,,2908,,,53551,,6,instructions,"[{'page_index': 0, 'viewing_time': 2908}]",
28,condition1,,,,,,0.0-4.0-0.0,,,img2/jap/2.jpg,,53794,,7,image-keyboard-response,,
28,condition1,,,,,,0.0-4.0-1.0,,,+,,54110,,8,html-keyboard-response,,
28,condition1,,,,,,0.0-4.0-2.0,,,img2/jap/3.jpg,,54346,,9,image-keyboard-response,,
28,condition1,,,,,,0.0-4.0-3.0,d,653,"Press S if the two images were the same, Press D if the two images were different.",,55002,,10,html-keyboard-response,,
28,condition1,,,,,,0.0-5.0,,2153,,,57154,,11,instructions,"[{'page_index': 0, 'viewing_time': 2153}]",
28,condition1,,,,,,0.0-6.0-0.0,,,img2/tools/6.jpg,,57370,,12,image-keyboard-response,,
28,condition1,,,,,,0.0-6.0-1.0,,,+,,57679,,13,html-keyboard-response,,
28,condition1,,,,,,0.0-6.0-2.0,,,img2/tools/6.jpg,,57891,,14,image-keyboard-response,,
28,condition1,S,O,,,,0.0-6.0-3.0,s,451,"Press S if the two images were the same, Press D if the two images were different.",,58342,,15,html-keyboard-response,,
28,condition1,,,,,,0.0-6.0-0.1,,,img2/Mjap/2.jpg,,58596,,16,image-keyboard-response,,
28,condition1,,,,,,0.0-6.0-1.1,,,+,,58910,,17,html-keyboard-response,,
28,condition1,,,,,,0.0-6.0-2.1,,,img2/Mjap/8.jpg,,59163,,18,image-keyboard-response,,
28,condition1,D,J,,,,0.0-6.0-3.1,d,433,"Press S if the two images were the same, Press D if the two images were different.",,59597,,19,html-keyboard-response,,
28,condition1,,,,,,0.0-6.0-0.2,,,img2/Mfaces/13.jpg,,59824,,20,image-keyboard-response,,
28,condition1,,,,,,0.0-6.0-1.2,,,+,,60129,,21,html-keyboard-response,,
28,condition1,,,,,,0.0-6.0-2.2,,,img2/Mfaces/10.jpg,,60362,,22,image-keyboard-response,,
28,condition1,D,H,,,,0.0-6.0-3.2,d,505,"Press S if the two images were the same, Press D if the two images were different.",,60867,,23,html-keyboard-response,,
28,condition1,,,,,,0.0-6.0-0.3,,,img2/faces/10.jpg,,61098,,24,image-keyboard-response,,
28,condition1,,,,,,0.0-6.0-1.3,,,+,,61412,,25,html-keyboard-response,,
28,condition1,,,,,,0.0-6.0-2.3,,,img2/faces/5.jpg,,61641,,26,image-keyboard-response,,
28,condition1,D,H,,,,0.0-6.0-3.3,d,422,"Press S if the two images were the same, Press D if the two images were different.",,62065,,27,html-keyboard-response,,
28,condition1,,,,,,0.0-6.0-0.4,,,img2/false/6.jpg,,62288,,28,image-keyboard-response,,
28,condition1,,,,,,0.0-6.0-1.4,,,+,,62600,,29,html-keyboard-response,,
28,condition1,,,,,,0.0-6.0-2.4,,,img2/false/12.jpg,,62847,,30,image-keyboard-response,,
28,condition1,D,M,,,,0.0-6.0-3.4,d,332,"Press S if the two images were the same, Press D if the two images were different.",,63180,,31,html-keyboard-response,,
28,condition1,,,,,,0.0-6.0-0.5,,,img2/jap/13.jpg,,63428,,32,image-keyboard-response,,
28,condition1,,,,,,0.0-6.0-1.5,,,+,,63734,,33,html-keyboard-response,,
28,condition1,,,,,,0.0-6.0-2.5,,,img2/Mjap/13.jpg,,63985,,34,image-keyboard-response,,
28,condition1,S,J,,,,0.0-6.0-3.5,s,365,"Press S if the two images were the same, Press D if the two images were different.",,64351,,35,html-keyboard-response,,
28,condition1,,,,,,0.0-6.0-0.6,,,img2/tools/10.jpg,,64559,,36,image-keyboard-response,,
28,condition1,,,,,,0.0-6.0-1.6,,,+,,64873,,37,html-keyboard-response,,
28,condition1,,,,,,0.0-6.0-2.6,,,img2/tools/5.jpg,,65088,,38,image-keyboard-response,,
28,condition1,D,O,,,,0.0-6.0-3.6,d,399,"Press S if the two images were the same, Press D if the two images were different.",,65488,,39,html-keyboard-response,,
28,condition1,,,,,,0.0-6.0-0.7,,,img2/faces/3.jpg,,65707,,40,image-keyboard-response,,
28,condition1,,,,,,0.0-6.0-1.7,,,+,,66021,,41,html-keyboard-response,,
28,condition1,,,,,,0.0-6.0-2.7,,,img2/Mfaces/3.jpg,,66239,,42,image-keyboard-response,,
28,condition1,S,H,,,,0.0-6.0-3.7,s,386,"Press S if the two images were the same, Press D if the two images were different.",,66626,,43,html-keyboard-response,,
28,condition1,,,,,,0.0-6.0-0.8,,,img2/french/5.jpg,,66865,,44,image-keyboard-response,,
28,condition1,,,,,,0.0-6.0-1.8,,,+,,67174,,45,html-keyboard-response,,
28,condition1,,,,,,0.0-6.0-2.8,,,img2/Mfrench/5.jpg,,67415,,46,image-keyboard-response,,
28,condition1,S,R,,,,0.0-6.0-3.8,s,693,"Press S if the two images were the same, Press D if the two images were different.",,68110,,47,html-keyboard-response,,
28,condition1,,,,,,0.0-6.0-0.9,,,img2/false/5.jpg,,68357,,48,image-keyboard-response,,
28,condition1,,,,,,0.0-6.0-1.9,,,+,,68670,,49,html-keyboard-response,,
28,condition1,,,,,,0.0-6.0-2.9,,,img2/false/5.jpg,,68878,,50,image-keyboard-response,,
28,condition1,S,M,,,,0.0-6.0-3.9,s,508,"Press S if the two images were the same, Press D if the two images were different.",,69388,,51,html-keyboard-response,,
28,condition1,,,,,,0.0-6.0-0.10,,,img2/faces/9.jpg,,69614,,52,image-keyboard-response,,
28,condition1,,,,,,0.0-6.0-1.10,,,+,,69915,,53,html-keyboard-response,,
28,condition1,,,,,,0.0-6.0-2.10,,,img2/Mfaces/9.jpg,,70134,,54,image-keyboard-response,,
28,condition1,S,H,,,,0.0-6.0-3.10,s,441,"Press S if the two images were the same, Press D if the two images were different.",,70575,,55,html-keyboard-response,,
28,condition1,,,,,,0.0-6.0-0.11,,,img2/Mfalse/12.jpg,,70817,,56,image-keyboard-response,,
28,condition1,,,,,,0.0-6.0-1.11,,,+,,71127,,57,html-keyboard-response,,
28,condition1,,,,,,0.0-6.0-2.11,,,img2/Mfalse/3.jpg,,71375,,58,image-keyboard-response,,
28,condition1,D,M,,,,0.0-6.0-3.11,d,401,"Press S if the two images were the same, Press D if the two images were different.",,71779,,59,html-keyboard-response,,
28,condition1,,,,,,0.0-6.0-0.12,,,img2/faces/6.jpg,,71999,,60,image-keyboard-response,,
28,condition1,,,,,,0.0-6.0-1.12,,,+,,72304,,61,html-keyboard-response,,
28,condition1,,,,,,0.0-6.0-2.12,,,img2/Mfaces/6.jpg,,72526,,62,image-keyboard-response,,
28,condition1,S,H,,,,0.0-6.0-3.12,s,514,"Press S if the two images were the same, Press D if the two images were different.",,73041,,63,html-keyboard-response,,
28,condition1,,,,,,0.0-6.0-0.13,,,img2/french/6.jpg,,73289,,64,image-keyboard-response,,
28,condition1,,,,,,0.0-6.0-1.13,,,+,,73601,,65,html-keyboard-response,,
28,condition1,,,,,,0.0-6.0-2.13,,,img2/french/12.jpg,,73842,,66,image-keyboard-response,,
28,condition1,D,R,,,,0.0-6.0-3.13,d,555,"Press S if the two images were the same, Press D if the two images were different.",,74399,,67,html-keyboard-response,,
28,condition1,,,,,,0.0-6.0-0.14,,,img2/jap/1.jpg,,74644,,68,image-keyboard-response,,
28,condition1,,,,,,0.0-6.0-1.14,,,+,,74955,,69,html-keyboard-response,,
28,condition1,,,,,,0.0-6.0-2.14,,,img2/Mjap/1.jpg,,75198,,70,image-keyboard-response,,
28,condition1,S,J,,,,0.0-6.0-3.14,s,754,"Press S if the two images were the same, Press D if the two images were different.",,75952,,71,html-keyboard-response,,
28,condition1,,,,,,0.0-6.0-0.15,,,img2/Mtools/1.jpg,,76178,,72,image-keyboard-response,,
28,condition1,,,,,,0.0-6.0-1.15,,,+,,76487,,73,html-keyboard-response,,
28,condition1,,,,,,0.0-6.0-2.15,,,img2/Mtools/10.jpg,,76698,,74,image-keyboard-response,,
28,condition1,D,O,,,,0.0-6.0-3.15,d,555,"Press S if the two images were the same, Press D if the two images were different.",,77253,,75,html-keyboard-response,,
28,condition1,,,,,,0.0-6.0-0.16,,,img2/Mjap/14.jpg,,77491,,76,image-keyboard-response,,
28,condition1,,,,,,0.0-6.0-1.16,,,+,,77803,,77,html-keyboard-response,,
28,condition1,,,,,,0.0-6.0-2.16,,,img2/Mjap/7.jpg,,78053,,78,image-keyboard-response,,
28,condition1,D,J,,,,0.0-6.0-3.16,s,387,"Press S if the two images were the same, Press D if the two images were different.",,78440,,79,html-keyboard-response,,
28,condition1,,,,,,0.0-6.0-0.17,,,img2/jap/2.jpg,,78645,,80,image-keyboard-response,,
28,condition1,,,,,,0.0-6.0-1.17,,,+,,78961,,81,html-keyboard-response,,
28,condition1,,,,,,0.0-6.0-2.17,,,img2/Mjap/2.jpg,,79177,,82,image-keyboard-response,,
28,condition1,S,J,,,,0.0-6.0-3.17,s,510,"Press S if the two images were the same, Press D if the two images were different.",,79689,,83,html-keyboard-response,,
28,condition1,,,,,,0.0-6.0-0.18,,,img2/french/4.jpg,,79920,,84,image-keyboard-response,,
28,condition1,,,,,,0.0-6.0-1.18,,,+,,80233,,85,html-keyboard-response,,
28,condition1,,,,,,0.0-6.0-2.18,,,img2/french/4.jpg,,80436,,86,image-keyboard-response,,
28,condition1,S,R,,,,0.0-6.0-3.18,s,529,"Press S if the two images were the same, Press D if the two images were different.",,80965,,87,html-keyboard-response,,
28,condition1,,,,,,0.0-6.0-0.19,,,img2/Mtools/14.jpg,,81169,,88,image-keyboard-response,,
28,condition1,,,,,,0.0-6.0-1.19,,,+,,81478,,89,html-keyboard-response,,
28,condition1,,,,,,0.0-6.0-2.19,,,img2/Mtools/7.jpg,,81696,,90,image-keyboard-response,,
28,condition1,D,O,,,,0.0-6.0-3.19,d,444,"Press S if the two images were the same, Press D if the two images were different.",,82141,,91,html-keyboard-response,,
28,condition1,,,,,,0.0-6.0-0.20,,,img2/faces/2.jpg,,82355,,92,image-keyboard-response,,
28,condition1,,,,,,0.0-6.0-1.20,,,+,,82666,,93,html-keyboard-response,,
28,condition1,,,,,,0.0-6.0-2.20,,,img2/Mfaces/2.jpg,,82884,,94,image-keyboard-response,,
28,condition1,S,H,,,,0.0-6.0-3.20,s,363,"Press S if the two images were the same, Press D if the two images were different.",,83248,,95,html-keyboard-response,,
28,condition1,,,,,,0.0-6.0-0.21,,,img2/faces/8.jpg,,83467,,96,image-keyboard-response,,
28,condition1,,,,,,0.0-6.0-1.21,,,+,,83782,,97,html-keyboard-response,,
28,condition1,,,,,,0.0-6.0-2.21,,,img2/faces/8.jpg,,83997,,98,image-keyboard-response,,
28,condition1,S,H,,,,0.0-6.0-3.21,s,352,"Press S if the two images were the same, Press D if the two images were different.",,84349,,99,html-keyboard-response,,
28,condition1,,,,,,0.0-6.0-0.22,,,img2/french/5.jpg,,84556,,100,image-keyboard-response,,
28,condition1,,,,,,0.0-6.0-1.22,,,+,,84864,,101,html-keyboard-response,,
28,condition1,,,,,,0.0-6.0-2.22,,,img2/french/6.jpg,,85073,,102,image-keyboard-response,,
28,condition1,D,R,,,,0.0-6.0-3.22,d,511,"Press S if the two images were the same, Press D if the two images were different.",,85585,,103,html-keyboard-response,,
28,condition1,,,,,,0.0-6.0-0.23,,,img2/faces/5.jpg,,85797,,104,image-keyboard-response,,
28,condition1,,,,,,0.0-6.0-1.23,,,+,,86104,,105,html-keyboard-response,,
28,condition1,,,,,,0.0-6.0-2.23,,,img2/Mfaces/5.jpg,,86347,,106,image-keyboard-response,,
28,condition1,S,H,,,,0.0-6.0-3.23,s,429,"Press S if the two images were the same, Press D if the two images were different.",,86778,,107,html-keyboard-response,,
28,condition1,,,,,,0.0-6.0-0.24,,,img2/faces/10.jpg,,86989,,108,image-keyboard-response,,
28,condition1,,,,,,0.0-6.0-1.24,,,+,,87304,,109,html-keyboard-response,,
28,condition1,,,,,,0.0-6.0-2.24,,,img2/Mfaces/10.jpg,,87515,,110,image-keyboard-response,,
28,condition1,S,H,,,,0.0-6.0-3.24,s,405,"Press S if the two images were the same, Press D if the two images were different.",,87922,,111,html-keyboard-response,,
28,condition1,,,,,,0.0-6.0-0.25,,,img2/jap/11.jpg,,88163,,112,image-keyboard-response,,
28,condition1,,,,,,0.0-6.0-1.25,,,+,,88465,,113,html-keyboard-response,,
28,condition1,,,,,,0.0-6.0-2.25,,,img2/jap/13.jpg,,88668,,114,image-keyboard-response,,
28,condition1,D,J,,,,0.0-6.0-3.25,d,469,"Press S if the two images were the same, Press D if the two images were different.",,89138,,115,html-keyboard-response,,
28,condition1,,,,,,0.0-6.0-0.26,,,img2/tools/13.jpg,,89355,,116,image-keyboard-response,,
28,condition1,,,,,,0.0-6.0-1.26,,,+,,89665,,117,html-keyboard-response,,
28,condition1,,,,,,0.0-6.0-2.26,,,img2/tools/13.jpg,,89874,,118,image-keyboard-response,,
28,condition1,S,O,,,,0.0-6.0-3.26,s,381,"Press S if the two images were the same, Press D if the two images were different.",,90256,,119,html-keyboard-response,,
28,condition1,,,,,,0.0-6.0-0.27,,,img2/french/3.jpg,,90491,,120,image-keyboard-response,,
28,condition1,,,,,,0.0-6.0-1.27,,,+,,90799,,121,html-keyboard-response,,
28,condition1,,,,,,0.0-6.0-2.27,,,img2/french/2.jpg,,91044,,122,image-keyboard-response,,
28,condition1,D,R,,,,0.0-6.0-3.27,d,506,"Press S if the two images were the same, Press D if the two images were different.",,91552,,123,html-keyboard-response,,
28,condition1,,,,,,0.0-6.0-0.28,,,img2/false/14.jpg,,91787,,124,image-keyboard-response,,
28,condition1,,,,,,0.0-6.0-1.28,,,+,,92099,,125,html-keyboard-response,,
28,condition1,,,,,,0.0-6.0-2.28,,,img2/false/14.jpg,,92316,,126,image-keyboard-response,,
28,condition1,S,M,,,,0.0-6.0-3.28,s,673,"Press S if the two images were the same, Press D if the two images were different.",,92990,,127,html-keyboard-response,,
28,condition1,,,,,,0.0-6.0-0.29,,,img2/tools/7.jpg,,93203,,128,image-keyboard-response,,
28,condition1,,,,,,0.0-6.0-1.29,,,+,,93509,,129,html-keyboard-response,,
28,condition1,,,,,,0.0-6.0-2.29,,,img2/tools/6.jpg,,93712,,130,image-keyboard-response,,
28,condition1,D,O,,,,0.0-6.0-3.29,d,394,"Press S if the two images were the same, Press D if the two images were different.",,94106,,131,html-keyboard-response,,
28,condition1,,,,,,0.0-6.0-0.30,,,img2/tools/2.jpg,,94313,,132,image-keyboard-response,,
28,condition1,,,,,,0.0-6.0-1.30,,,+,,94614,,133,html-keyboard-response,,
28,condition1,,,,,,0.0-6.0-2.30,,,img2/tools/8.jpg,,94817,,134,image-keyboard-response,,
28,condition1,D,O,,,,0.0-6.0-3.30,d,472,"Press S if the two images were the same, Press D if the two images were different.",,95291,,135,html-keyboard-response,,
28,condition1,,,,,,0.0-6.0-0.31,,,img2/french/8.jpg,,95535,,136,image-keyboard-response,,
28,condition1,,,,,,0.0-6.0-1.31,,,+,,95843,,137,html-keyboard-response,,
28,condition1,,,,,,0.0-6.0-2.31,,,img2/french/12.jpg,,96056,,138,image-keyboard-response,,
28,condition1,D,R,,,,0.0-6.0-3.31,d,595,"Press S if the two images were the same, Press D if the two images were different.",,96652,,139,html-keyboard-response,,
28,condition1,,,,,,0.0-6.0-0.32,,,img2/jap/5.jpg,,96901,,140,image-keyboard-response,,
28,condition1,,,,,,0.0-6.0-1.32,,,+,,97204,,141,html-keyboard-response,,
28,condition1,,,,,,0.0-6.0-2.32,,,img2/jap/6.jpg,,97452,,142,image-keyboard-response,,
28,condition1,D,J,,,,0.0-6.0-3.32,d,467,"Press S if the two images were the same, Press D if the two images were different.",,97921,,143,html-keyboard-response,,
28,condition1,,,,,,0.0-6.0-0.33,,,img2/tools/14.jpg,,98134,,144,image-keyboard-response,,
28,condition1,,,,,,0.0-6.0-1.33,,,+,,98435,,145,html-keyboard-response,,
28,condition1,,,,,,0.0-6.0-2.33,,,img2/Mtools/14.jpg,,98651,,146,image-keyboard-response,,
28,condition1,S,O,,,,0.0-6.0-3.33,s,350,"Press S if the two images were the same, Press D if the two images were different.",,99001,,147,html-keyboard-response,,
28,condition1,,,,,,0.0-6.0-0.34,,,img2/Mjap/1.jpg,,99202,,148,image-keyboard-response,,
28,condition1,,,,,,0.0-6.0-1.34,,,+,,99513,,149,html-keyboard-response,,
28,condition1,,,,,,0.0-6.0-2.34,,,img2/Mjap/10.jpg,,99753,,150,image-keyboard-response,,
28,condition1,D,J,,,,0.0-6.0-3.34,d,410,"Press S if the two images were the same, Press D if the two images were different.",,100164,,151,html-keyboard-response,,
28,condition1,,,,,,0.0-6.0-0.35,,,img2/jap/9.jpg,,100411,,152,image-keyboard-response,,
28,condition1,,,,,,0.0-6.0-1.35,,,+,,100719,,153,html-keyboard-response,,
28,condition1,,,,,,0.0-6.0-2.35,,,img2/jap/13.jpg,,100924,,154,image-keyboard-response,,
28,condition1,D,J,,,,0.0-6.0-3.35,d,652,"Press S if the two images were the same, Press D if the two images were different.",,101576,,155,html-keyboard-response,,
28,condition1,,,,,,0.0-6.0-0.36,,,img2/Mfalse/9.jpg,,101814,,156,image-keyboard-response,,
28,condition1,,,,,,0.0-6.0-1.36,,,+,,102124,,157,html-keyboard-response,,
28,condition1,,,,,,0.0-6.0-2.36,,,img2/Mfalse/13.jpg,,102370,,158,image-keyboard-response,,
28,condition1,D,M,,,,0.0-6.0-3.36,d,468,"Press S if the two images were the same, Press D if the two images were different.",,102839,,159,html-keyboard-response,,
28,condition1,,,,,,0.0-6.0-0.37,,,img2/jap/14.jpg,,103089,,160,image-keyboard-response,,
28,condition1,,,,,,0.0-6.0-1.37,,,+,,103395,,161,html-keyboard-response,,
28,condition1,,,,,,0.0-6.0-2.37,,,img2/jap/14.jpg,,103596,,162,image-keyboard-response,,
28,condition1,S,J,,,,0.0-6.0-3.37,s,351,"Press S if the two images were the same, Press D if the two images were different.",,103947,,163,html-keyboard-response,,
28,condition1,,,,,,0.0-6.0-0.38,,,img2/false/5.jpg,,104159,,164,image-keyboard-response,,
28,condition1,,,,,,0.0-6.0-1.38,,,+,,104460,,165,html-keyboard-response,,
28,condition1,,,,,,0.0-6.0-2.38,,,img2/false/6.jpg,,104670,,166,image-keyboard-response,,
28,condition1,D,M,,,,0.0-6.0-3.38,d,700,"Press S if the two images were the same, Press D if the two images were different.",,105372,,167,html-keyboard-response,,
28,condition1,,,,,,0.0-6.0-0.39,,,img2/Mjap/5.jpg,,105623,,168,image-keyboard-response,,
28,condition1,,,,,,0.0-6.0-1.39,,,+,,105924,,169,html-keyboard-response,,
28,condition1,,,,,,0.0-6.0-2.39,,,img2/Mjap/6.jpg,,106181,,170,image-keyboard-response,,
28,condition1,D,J,,,,0.0-6.0-3.39,d,416,"Press S if the two images were the same, Press D if the two images were different.",,106598,,171,html-keyboard-response,,
28,condition1,,,,,,0.0-6.0-0.40,,,img2/faces/7.jpg,,106830,,172,image-keyboard-response,,
28,condition1,,,,,,0.0-6.0-1.40,,,+,,107131,,173,html-keyboard-response,,
28,condition1,,,,,,0.0-6.0-2.40,,,img2/faces/7.jpg,,107339,,174,image-keyboard-response,,
28,condition1,S,H,,,,0.0-6.0-3.40,s,393,"Press S if the two images were the same, Press D if the two images were different.",,107733,,175,html-keyboard-response,,
28,condition1,,,,,,0.0-6.0-0.41,,,img2/false/9.jpg,,107972,,176,image-keyboard-response,,
28,condition1,,,,,,0.0-6.0-1.41,,,+,,108281,,177,html-keyboard-response,,
28,condition1,,,,,,0.0-6.0-2.41,,,img2/false/13.jpg,,108523,,178,image-keyboard-response,,
28,condition1,D,M,,,,0.0-6.0-3.41,d,390,"Press S if the two images were the same, Press D if the two images were different.",,108915,,179,html-keyboard-response,,
28,condition1,,,,,,0.0-6.0-0.42,,,img2/Mjap/4.jpg,,109172,,180,image-keyboard-response,,
28,condition1,,,,,,0.0-6.0-1.42,,,+,,109485,,181,html-keyboard-response,,
28,condition1,,,,,,0.0-6.0-2.42,,,img2/Mjap/8.jpg,,109698,,182,image-keyboard-response,,
28,condition1,D,J,,,,0.0-6.0-3.42,d,438,"Press S if the two images were the same, Press D if the two images were different.",,110139,,183,html-keyboard-response,,
28,condition1,,,,,,0.0-6.0-0.43,,,img2/Mfaces/6.jpg,,110345,,184,image-keyboard-response,,
28,condition1,,,,,,0.0-6.0-1.43,,,+,,110657,,185,html-keyboard-response,,
28,condition1,,,,,,0.0-6.0-2.43,,,img2/Mfaces/12.jpg,,110878,,186,image-keyboard-response,,
28,condition1,D,H,,,,0.0-6.0-3.43,d,487,"Press S if the two images were the same, Press D if the two images were different.",,111365,,187,html-keyboard-response,,
28,condition1,,,,,,0.0-6.0-0.44,,,img2/faces/1.jpg,,111578,,188,image-keyboard-response,,
28,condition1,,,,,,0.0-6.0-1.44,,,+,,111887,,189,html-keyboard-response,,
28,condition1,,,,,,0.0-6.0-2.44,,,img2/faces/10.jpg,,112095,,190,image-keyboard-response,,
28,condition1,D,H,,,,0.0-6.0-3.44,d,378,"Press S if the two images were the same, Press D if the two images were different.",,112474,,191,html-keyboard-response,,
28,condition1,,,,,,0.0-6.0-0.45,,,img2/faces/2.jpg,,112682,,192,image-keyboard-response,,
28,condition1,,,,,,0.0-6.0-1.45,,,+,,112987,,193,html-keyboard-response,,
28,condition1,,,,,,0.0-6.0-2.45,,,img2/faces/2.jpg,,113198,,194,image-keyboard-response,,
28,condition1,S,H,,,,0.0-6.0-3.45,s,297,"Press S if the two images were the same, Press D if the two images were different.",,113496,,195,html-keyboard-response,,
28,condition1,,,,,,0.0-6.0-0.46,,,img2/Mfalse/6.jpg,,113737,,196,image-keyboard-response,,
28,condition1,,,,,,0.0-6.0-1.46,,,+,,114046,,197,html-keyboard-response,,
28,condition1,,,,,,0.0-6.0-2.46,,,img2/Mfalse/12.jpg,,114259,,198,image-keyboard-response,,
28,condition1,D,M,,,,0.0-6.0-3.46,d,348,"Press S if the two images were the same, Press D if the two images were different.",,114606,,199,html-keyboard-response,,
28,condition1,,,,,,0.0-6.0-0.47,,,img2/false/14.jpg,,114808,,200,image-keyboard-response,,
28,condition1,,,,,,0.0-6.0-1.47,,,+,,115116,,201,html-keyboard-response,,
28,condition1,,,,,,0.0-6.0-2.47,,,img2/false/7.jpg,,115358,,202,image-keyboard-response,,
28,condition1,D,M,,,,0.0-6.0-3.47,d,469,"Press S if the two images were the same, Press D if the two images were different.",,115828,,203,html-keyboard-response,,
28,condition1,,,,,,0.0-6.0-0.48,,,img2/Mjap/9.jpg,,116075,,204,image-keyboard-response,,
28,condition1,,,,,,0.0-6.0-1.48,,,+,,116379,,205,html-keyboard-response,,
28,condition1,,,,,,0.0-6.0-2.48,,,img2/Mjap/13.jpg,,116592,,206,image-keyboard-response,,
28,condition1,D,J,,,,0.0-6.0-3.48,d,398,"Press S if the two images were the same, Press D if the two images were different.",,116991,,207,html-keyboard-response,,
28,condition1,,,,,,0.0-6.0-0.49,,,img2/tools/1.jpg,,117216,,208,image-keyboard-response,,
28,condition1,,,,,,0.0-6.0-1.49,,,+,,117520,,209,html-keyboard-response,,
28,condition1,,,,,,0.0-6.0-2.49,,,img2/tools/10.jpg,,117735,,210,image-keyboard-response,,
28,condition1,D,O,,,,0.0-6.0-3.49,d,445,"Press S if the two images were the same, Press D if the two images were different.",,118180,,211,html-keyboard-response,,
28,condition1,,,,,,0.0-6.0-0.50,,,img2/Mtools/4.jpg,,118389,,212,image-keyboard-response,,
28,condition1,,,,,,0.0-6.0-1.50,,,+,,118701,,213,html-keyboard-response,,
28,condition1,,,,,,0.0-6.0-2.50,,,img2/Mtools/8.jpg,,118918,,214,image-keyboard-response,,
28,condition1,D,O,,,,0.0-6.0-3.50,d,377,"Press S if the two images were the same, Press D if the two images were different.",,119295,,215,html-keyboard-response,,
28,condition1,,,,,,0.0-6.0-0.51,,,img2/french/6.jpg,,119497,,216,image-keyboard-response,,
28,condition1,,,,,,0.0-6.0-1.51,,,+,,119801,,217,html-keyboard-response,,
28,condition1,,,,,,0.0-6.0-2.51,,,img2/Mfrench/6.jpg,,120043,,218,image-keyboard-response,,
28,condition1,S,R,,,,0.0-6.0-3.51,s,442,"Press S if the two images were the same, Press D if the two images were different.",,120486,,219,html-keyboard-response,,
28,condition1,,,,,,0.0-6.0-0.52,,,img2/faces/5.jpg,,120697,,220,image-keyboard-response,,
28,condition1,,,,,,0.0-6.0-1.52,,,+,,121002,,221,html-keyboard-response,,
28,condition1,,,,,,0.0-6.0-2.52,,,img2/faces/6.jpg,,121210,,222,image-keyboard-response,,
28,condition1,D,H,,,,0.0-6.0-3.52,d,326,"Press S if the two images were the same, Press D if the two images were different.",,121537,,223,html-keyboard-response,,
28,condition1,,,,,,0.0-6.0-0.53,,,img2/tools/4.jpg,,121760,,224,image-keyboard-response,,
28,condition1,,,,,,0.0-6.0-1.53,,,+,,122067,,225,html-keyboard-response,,
28,condition1,,,,,,0.0-6.0-2.53,,,img2/Mtools/4.jpg,,122270,,226,image-keyboard-response,,
28,condition1,S,O,,,,0.0-6.0-3.53,s,324,"Press S if the two images were the same, Press D if the two images were different.",,122596,,227,html-keyboard-response,,
28,condition1,,,,,,0.0-6.0-0.54,,,img2/false/1.jpg,,122835,,228,image-keyboard-response,,
28,condition1,,,,,,0.0-6.0-1.54,,,+,,123140,,229,html-keyboard-response,,
28,condition1,,,,,,0.0-6.0-2.54,,,img2/false/10.jpg,,123378,,230,image-keyboard-response,,
28,condition1,D,M,,,,0.0-6.0-3.54,d,404,"Press S if the two images were the same, Press D if the two images were different.",,123782,,231,html-keyboard-response,,
28,condition1,,,,,,0.0-6.0-0.55,,,img2/faces/10.jpg,,123987,,232,image-keyboard-response,,
28,condition1,,,,,,0.0-6.0-1.55,,,+,,124291,,233,html-keyboard-response,,
28,condition1,,,,,,0.0-6.0-2.55,,,img2/faces/10.jpg,,124503,,234,image-keyboard-response,,
28,condition1,S,H,,,,0.0-6.0-3.55,s,336,"Press S if the two images were the same, Press D if the two images were different.",,124839,,235,html-keyboard-response,,
28,condition1,,,,,,0.0-6.0-0.56,,,img2/faces/8.jpg,,125042,,236,image-keyboard-response,,
28,condition1,,,,,,0.0-6.0-1.56,,,+,,125354,,237,html-keyboard-response,,
28,condition1,,,,,,0.0-6.0-2.56,,,img2/Mfaces/8.jpg,,125567,,238,image-keyboard-response,,
28,condition1,S,H,,,,0.0-6.0-3.56,s,384,"Press S if the two images were the same, Press D if the two images were different.",,125952,,239,html-keyboard-response,,
28,condition1,,,,,,0.0-6.0-0.57,,,img2/false/4.jpg,,126188,,240,image-keyboard-response,,
28,condition1,,,,,,0.0-6.0-1.57,,,+,,126496,,241,html-keyboard-response,,
28,condition1,,,,,,0.0-6.0-2.57,,,img2/false/4.jpg,,126712,,242,image-keyboard-response,,
28,condition1,S,M,,,,0.0-6.0-3.57,s,270,"Press S if the two images were the same, Press D if the two images were different.",,126983,,243,html-keyboard-response,,
28,condition1,,,,,,0.0-6.0-0.58,,,img2/false/13.jpg,,127196,,244,image-keyboard-response,,
28,condition1,,,,,,0.0-6.0-1.58,,,+,,127505,,245,html-keyboard-response,,
28,condition1,,,,,,0.0-6.0-2.58,,,img2/Mfalse/13.jpg,,127713,,246,image-keyboard-response,,
28,condition1,S,M,,,,0.0-6.0-3.58,d,406,"Press S if the two images were the same, Press D if the two images were different.",,128120,,247,html-keyboard-response,,
28,condition1,,,,,,0.0-6.0-0.59,,,img2/jap/7.jpg,,128362,,248,image-keyboard-response,,
28,condition1,,,,,,0.0-6.0-1.59,,,+,,128675,,249,html-keyboard-response,,
28,condition1,,,,,,0.0-6.0-2.59,,,img2/jap/6.jpg,,128885,,250,image-keyboard-response,,
28,condition1,D,J,,,,0.0-6.0-3.59,d,430,"Press S if the two images were the same, Press D if the two images were different.",,129315,,251,html-keyboard-response,,
28,condition1,,,,,,0.0-6.0-0.60,,,img2/Mfaces/4.jpg,,129531,,252,image-keyboard-response,,
28,condition1,,,,,,0.0-6.0-1.60,,,+,,129836,,253,html-keyboard-response,,
28,condition1,,,,,,0.0-6.0-2.60,,,img2/Mfaces/8.jpg,,130039,,254,image-keyboard-response,,
28,condition1,D,H,,,,0.0-6.0-3.60,d,425,"Press S if the two images were the same, Press D if the two images were different.",,130466,,255,html-keyboard-response,,
28,condition1,,,,,,0.0-6.0-0.61,,,img2/french/5.jpg,,130673,,256,image-keyboard-response,,
28,condition1,,,,,,0.0-6.0-1.61,,,+,,130986,,257,html-keyboard-response,,
28,condition1,,,,,,0.0-6.0-2.61,,,img2/french/5.jpg,,131198,,258,image-keyboard-response,,
28,condition1,S,R,,,,0.0-6.0-3.61,s,452,"Press S if the two images were the same, Press D if the two images were different.",,131650,,259,html-keyboard-response,,
28,condition1,,,,,,0.0-6.0-0.62,,,img2/french/3.jpg,,131866,,260,image-keyboard-response,,
28,condition1,,,,,,0.0-6.0-1.62,,,+,,132178,,261,html-keyboard-response,,
28,condition1,,,,,,0.0-6.0-2.62,,,img2/french/3.jpg,,132398,,262,image-keyboard-response,,
28,condition1,S,R,,,,0.0-6.0-3.62,s,353,"Press S if the two images were the same, Press D if the two images were different.",,132751,,263,html-keyboard-response,,
28,condition1,,,,,,0.0-6.0-0.63,,,img2/false/14.jpg,,132965,,264,image-keyboard-response,,
28,condition1,,,,,,0.0-6.0-1.63,,,+,,133278,,265,html-keyboard-response,,
28,condition1,,,,,,0.0-6.0-2.63,,,img2/Mfalse/14.jpg,,133526,,266,image-keyboard-response,,
28,condition1,S,M,,,,0.0-6.0-3.63,d,570,"Press S if the two images were the same, Press D if the two images were different.",,134096,,267,html-keyboard-response,,
28,condition1,,,,,,0.0-6.0-0.64,,,img2/faces/7.jpg,,134303,,268,image-keyboard-response,,
28,condition1,,,,,,0.0-6.0-1.64,,,+,,134616,,269,html-keyboard-response,,
28,condition1,,,,,,0.0-6.0-2.64,,,img2/faces/6.jpg,,134820,,270,image-keyboard-response,,
28,condition1,D,H,,,,0.0-6.0-3.64,d,486,"Press S if the two images were the same, Press D if the two images were different.",,135307,,271,html-keyboard-response,,
28,condition1,,,,,,0.0-6.0-0.65,,,img2/false/12.jpg,,135520,,272,image-keyboard-response,,
28,condition1,,,,,,0.0-6.0-1.65,,,+,,135824,,273,html-keyboard-response,,
28,condition1,,,,,,0.0-6.0-2.65,,,img2/false/3.jpg,,136070,,274,image-keyboard-response,,
28,condition1,D,M,,,,0.0-6.0-3.65,d,487,"Press S if the two images were the same, Press D if the two images were different.",,136558,,275,html-keyboard-response,,
28,condition1,,,,,,0.0-6.0-0.66,,,img2/jap/7.jpg,,136770,,276,image-keyboard-response,,
28,condition1,,,,,,0.0-6.0-1.66,,,+,,137083,,277,html-keyboard-response,,
28,condition1,,,,,,0.0-6.0-2.66,,,img2/Mjap/7.jpg,,137296,,278,image-keyboard-response,,
28,condition1,S,J,,,,0.0-6.0-3.66,s,338,"Press S if the two images were the same, Press D if the two images were different.",,137634,,279,html-keyboard-response,,
28,condition1,,,,,,0.0-6.0-0.67,,,img2/jap/6.jpg,,137846,,280,image-keyboard-response,,
28,condition1,,,,,,0.0-6.0-1.67,,,+,,138151,,281,html-keyboard-response,,
28,condition1,,,,,,0.0-6.0-2.67,,,img2/jap/6.jpg,,138363,,282,image-keyboard-response,,
28,condition1,S,J,,,,0.0-6.0-3.67,s,344,"Press S if the two images were the same, Press D if the two images were different.",,138707,,283,html-keyboard-response,,
28,condition1,,,,,,0.0-6.0-0.68,,,img2/Mtools/3.jpg,,138923,,284,image-keyboard-response,,
28,condition1,,,,,,0.0-6.0-1.68,,,+,,139234,,285,html-keyboard-response,,
28,condition1,,,,,,0.0-6.0-2.68,,,img2/Mtools/2.jpg,,139438,,286,image-keyboard-response,,
28,condition1,D,O,,,,0.0-6.0-3.68,d,376,"Press S if the two images were the same, Press D if the two images were different.",,139815,,287,html-keyboard-response,,
28,condition1,,,,,,0.0-6.0-0.69,,,img2/faces/14.jpg,,140043,,288,image-keyboard-response,,
28,condition1,,,,,,0.0-6.0-1.69,,,+,,140354,,289,html-keyboard-response,,
28,condition1,,,,,,0.0-6.0-2.69,,,img2/faces/7.jpg,,140558,,290,image-keyboard-response,,
28,condition1,D,H,,,,0.0-6.0-3.69,d,521,"Press S if the two images were the same, Press D if the two images were different.",,141080,,291,html-keyboard-response,,
28,condition1,,,,,,0.0-6.0-0.70,,,img2/Mfrench/2.jpg,,141335,,292,image-keyboard-response,,
28,condition1,,,,,,0.0-6.0-1.70,,,+,,141646,,293,html-keyboard-response,,
28,condition1,,,,,,0.0-6.0-2.70,,,img2/Mfrench/8.jpg,,141898,,294,image-keyboard-response,,
28,condition1,D,R,,,,0.0-6.0-3.70,d,693,"Press S if the two images were the same, Press D if the two images were different.",,142591,,295,html-keyboard-response,,
28,condition1,,,,,,0.0-6.0-0.71,,,img2/tools/8.jpg,,142798,,296,image-keyboard-response,,
28,condition1,,,,,,0.0-6.0-1.71,,,+,,143106,,297,html-keyboard-response,,
28,condition1,,,,,,0.0-6.0-2.71,,,img2/Mtools/8.jpg,,143322,,298,image-keyboard-response,,
28,condition1,S,O,,,,0.0-6.0-3.71,s,359,"Press S if the two images were the same, Press D if the two images were different.",,143681,,299,html-keyboard-response,,
28,condition1,,,,,,0.0-6.0-0.72,,,img2/Mtools/2.jpg,,143885,,300,image-keyboard-response,,
28,condition1,,,,,,0.0-6.0-1.72,,,+,,144195,,301,html-keyboard-response,,
28,condition1,,,,,,0.0-6.0-2.72,,,img2/Mtools/8.jpg,,144411,,302,image-keyboard-response,,
28,condition1,D,O,,,,0.0-6.0-3.72,d,508,"Press S if the two images were the same, Press D if the two images were different.",,144919,,303,html-keyboard-response,,
28,condition1,,,,,,0.0-6.0-0.73,,,img2/tools/11.jpg,,145136,,304,image-keyboard-response,,
28,condition1,,,,,,0.0-6.0-1.73,,,+,,145438,,305,html-keyboard-response,,
28,condition1,,,,,,0.0-6.0-2.73,,,img2/Mtools/11.jpg,,145660,,306,image-keyboard-response,,
28,condition1,S,O,,,,0.0-6.0-3.73,s,322,"Press S if the two images were the same, Press D if the two images were different.",,145983,,307,html-keyboard-response,,
28,condition1,,,,,,0.0-6.0-0.74,,,img2/false/7.jpg,,146188,,308,image-keyboard-response,,
28,condition1,,,,,,0.0-6.0-1.74,,,+,,146492,,309,html-keyboard-response,,
28,condition1,,,,,,0.0-6.0-2.74,,,img2/false/7.jpg,,146700,,310,image-keyboard-response,,
28,condition1,S,M,,,,0.0-6.0-3.74,s,555,"Press S if the two images were the same, Press D if the two images were different.",,147257,,311,html-keyboard-response,,
28,condition1,,,,,,0.0-6.0-0.75,,,img2/french/7.jpg,,147495,,312,image-keyboard-response,,
28,condition1,,,,,,0.0-6.0-1.75,,,+,,147813,,313,html-keyboard-response,,
28,condition1,,,,,,0.0-6.0-2.75,,,img2/french/6.jpg,,148026,,314,image-keyboard-response,,
28,condition1,D,R,,,,0.0-6.0-3.75,d,428,"Press S if the two images were the same, Press D if the two images were different.",,148455,,315,html-keyboard-response,,
28,condition1,,,,,,0.0-6.0-0.76,,,img2/jap/12.jpg,,148692,,316,image-keyboard-response,,
28,condition1,,,,,,0.0-6.0-1.76,,,+,,149001,,317,html-keyboard-response,,
28,condition1,,,,,,0.0-6.0-2.76,,,img2/jap/12.jpg,,149213,,318,image-keyboard-response,,
28,condition1,S,J,,,,0.0-6.0-3.76,s,346,"Press S if the two images were the same, Press D if the two images were different.",,149562,,319,html-keyboard-response,,
28,condition1,,,,,,0.0-6.0-0.77,,,img2/french/1.jpg,,149797,,320,image-keyboard-response,,
28,condition1,,,,,,0.0-6.0-1.77,,,+,,150106,,321,html-keyboard-response,,
28,condition1,,,,,,0.0-6.0-2.77,,,img2/Mfrench/1.jpg,,150356,,322,image-keyboard-response,,
28,condition1,S,R,,,,0.0-6.0-3.77,s,410,"Press S if the two images were the same, Press D if the two images were different.",,150768,,323,html-keyboard-response,,
28,condition1,,,,,,0.0-6.0-0.78,,,img2/tools/12.jpg,,150984,,324,image-keyboard-response,,
28,condition1,,,,,,0.0-6.0-1.78,,,+,,151298,,325,html-keyboard-response,,
28,condition1,,,,,,0.0-6.0-2.78,,,img2/tools/3.jpg,,151507,,326,image-keyboard-response,,
28,condition1,D,O,,,,0.0-6.0-3.78,d,394,"Press S if the two images were the same, Press D if the two images were different.",,151901,,327,html-keyboard-response,,
28,condition1,,,,,,0.0-6.0-0.79,,,img2/false/13.jpg,,152105,,328,image-keyboard-response,,
28,condition1,,,,,,0.0-6.0-1.79,,,+,,152422,,329,html-keyboard-response,,
28,condition1,,,,,,0.0-6.0-2.79,,,img2/false/13.jpg,,152623,,330,image-keyboard-response,,
28,condition1,S,M,,,,0.0-6.0-3.79,s,470,"Press S if the two images were the same, Press D if the two images were different.",,153093,,331,html-keyboard-response,,
28,condition1,,,,,,0.0-6.0-0.80,,,img2/Mfalse/3.jpg,,153306,,332,image-keyboard-response,,
28,condition1,,,,,,0.0-6.0-1.80,,,+,,153622,,333,html-keyboard-response,,
28,condition1,,,,,,0.0-6.0-2.80,,,img2/Mfalse/2.jpg,,153865,,334,image-keyboard-response,,
28,condition1,D,M,,,,0.0-6.0-3.80,d,410,"Press S if the two images were the same, Press D if the two images were different.",,154276,,335,html-keyboard-response,,
28,condition1,,,,,,0.0-6.0-0.81,,,img2/jap/14.jpg,,154490,,336,image-keyboard-response,,
28,condition1,,,,,,0.0-6.0-1.81,,,+,,154798,,337,html-keyboard-response,,
28,condition1,,,,,,0.0-6.0-2.81,,,img2/jap/7.jpg,,155011,,338,image-keyboard-response,,
28,condition1,D,J,,,,0.0-6.0-3.81,s,286,"Press S if the two images were the same, Press D if the two images were different.",,155298,,339,html-keyboard-response,,
28,condition1,,,,,,0.0-6.0-0.82,,,img2/Mjap/8.jpg,,155507,,340,image-keyboard-response,,
28,condition1,,,,,,0.0-6.0-1.82,,,+,,155820,,341,html-keyboard-response,,
28,condition1,,,,,,0.0-6.0-2.82,,,img2/Mjap/12.jpg,,156074,,342,image-keyboard-response,,
28,condition1,D,J,,,,0.0-6.0-3.82,d,379,"Press S if the two images were the same, Press D if the two images were different.",,156454,,343,html-keyboard-response,,
28,condition1,,,,,,0.0-6.0-0.83,,,img2/Mfrench/9.jpg,,156704,,344,image-keyboard-response,,
28,condition1,,,,,,0.0-6.0-1.83,,,+,,157012,,345,html-keyboard-response,,
28,condition1,,,,,,0.0-6.0-2.83,,,img2/Mfrench/13.jpg,,157267,,346,image-keyboard-response,,
28,condition1,D,R,,,,0.0-6.0-3.83,d,486,"Press S if the two images were the same, Press D if the two images were different.",,157754,,347,html-keyboard-response,,
28,condition1,,,,,,0.0-6.0-0.84,,,img2/faces/4.jpg,,157967,,348,image-keyboard-response,,
28,condition1,,,,,,0.0-6.0-1.84,,,+,,158276,,349,html-keyboard-response,,
28,condition1,,,,,,0.0-6.0-2.84,,,img2/faces/8.jpg,,158492,,350,image-keyboard-response,,
28,condition1,D,H,,,,0.0-6.0-3.84,d,337,"Press S if the two images were the same, Press D if the two images were different.",,158829,,351,html-keyboard-response,,
28,condition1,,,,,,0.0-6.0-0.85,,,img2/french/8.jpg,,159042,,352,image-keyboard-response,,
28,condition1,,,,,,0.0-6.0-1.85,,,+,,159357,,353,html-keyboard-response,,
28,condition1,,,,,,0.0-6.0-2.85,,,img2/Mfrench/8.jpg,,159572,,354,image-keyboard-response,,
28,condition1,S,R,,,,0.0-6.0-3.85,s,381,"Press S if the two images were the same, Press D if the two images were different.",,159955,,355,html-keyboard-response,,
28,condition1,,,,,,0.0-6.0-0.86,,,img2/Mtools/10.jpg,,160163,,356,image-keyboard-response,,
28,condition1,,,,,,0.0-6.0-1.86,,,+,,160467,,357,html-keyboard-response,,
28,condition1,,,,,,0.0-6.0-2.86,,,img2/Mtools/5.jpg,,160680,,358,image-keyboard-response,,
28,condition1,D,O,,,,0.0-6.0-3.86,d,231,"Press S if the two images were the same, Press D if the two images were different.",,160913,,359,html-keyboard-response,,
28,condition1,,,,,,0.0-6.0-0.87,,,img2/tools/13.jpg,,161118,,360,image-keyboard-response,,
28,condition1,,,,,,0.0-6.0-1.87,,,+,,161433,,361,html-keyboard-response,,
28,condition1,,,,,,0.0-6.0-2.87,,,img2/tools/10.jpg,,161638,,362,image-keyboard-response,,
28,condition1,D,O,,,,0.0-6.0-3.87,d,517,"Press S if the two images were the same, Press D if the two images were different.",,162157,,363,html-keyboard-response,,
28,condition1,,,,,,0.0-6.0-0.88,,,img2/french/4.jpg,,162368,,364,image-keyboard-response,,
28,condition1,,,,,,0.0-6.0-1.88,,,+,,162680,,365,html-keyboard-response,,
28,condition1,,,,,,0.0-6.0-2.88,,,img2/Mfrench/4.jpg,,162926,,366,image-keyboard-response,,
28,condition1,S,R,,,,0.0-6.0-3.88,s,440,"Press S if the two images were the same, Press D if the two images were different.",,163366,,367,html-keyboard-response,,
28,condition1,,,,,,0.0-6.0-0.89,,,img2/Mjap/3.jpg,,163627,,368,image-keyboard-response,,
28,condition1,,,,,,0.0-6.0-1.89,,,+,,163934,,369,html-keyboard-response,,
28,condition1,,,,,,0.0-6.0-2.89,,,img2/Mjap/2.jpg,,164145,,370,image-keyboard-response,,
28,condition1,D,J,,,,0.0-6.0-3.89,d,438,"Press S if the two images were the same, Press D if the two images were different.",,164583,,371,html-keyboard-response,,
28,condition1,,,,,,0.0-6.0-0.90,,,img2/jap/6.jpg,,164785,,372,image-keyboard-response,,
28,condition1,,,,,,0.0-6.0-1.90,,,+,,165094,,373,html-keyboard-response,,
28,condition1,,,,,,0.0-6.0-2.90,,,img2/Mjap/6.jpg,,165298,,374,image-keyboard-response,,
28,condition1,S,J,,,,0.0-6.0-3.90,d,464,"Press S if the two images were the same, Press D if the two images were different.",,165761,,375,html-keyboard-response,,
28,condition1,,,,,,0.0-6.0-0.91,,,img2/Mjap/11.jpg,,166015,,376,image-keyboard-response,,
28,condition1,,,,,,0.0-6.0-1.91,,,+,,166320,,377,html-keyboard-response,,
28,condition1,,,,,,0.0-6.0-2.91,,,img2/Mjap/13.jpg,,166528,,378,image-keyboard-response,,
28,condition1,D,J,,,,0.0-6.0-3.91,d,429,"Press S if the two images were the same, Press D if the two images were different.",,166957,,379,html-keyboard-response,,
28,condition1,,,,,,0.0-6.0-0.92,,,img2/Mjap/6.jpg,,167167,,380,image-keyboard-response,,
28,condition1,,,,,,0.0-6.0-1.92,,,+,,167478,,381,html-keyboard-response,,
28,condition1,,,,,,0.0-6.0-2.92,,,img2/Mjap/12.jpg,,167691,,382,image-keyboard-response,,
28,condition1,D,J,,,,0.0-6.0-3.92,d,471,"Press S if the two images were the same, Press D if the two images were different.",,168164,,383,html-keyboard-response,,
28,condition1,,,,,,0.0-6.0-0.93,,,img2/Mtools/8.jpg,,168374,,384,image-keyboard-response,,
28,condition1,,,,,,0.0-6.0-1.93,,,+,,168684,,385,html-keyboard-response,,
28,condition1,,,,,,0.0-6.0-2.93,,,img2/Mtools/12.jpg,,168901,,386,image-keyboard-response,,
28,condition1,D,O,,,,0.0-6.0-3.93,d,465,"Press S if the two images were the same, Press D if the two images were different.",,169367,,387,html-keyboard-response,,
28,condition1,,,,,,0.0-6.0-0.94,,,img2/jap/4.jpg,,169604,,388,image-keyboard-response,,
28,condition1,,,,,,0.0-6.0-1.94,,,+,,169919,,389,html-keyboard-response,,
28,condition1,,,,,,0.0-6.0-2.94,,,img2/jap/8.jpg,,170150,,390,image-keyboard-response,,
28,condition1,D,J,,,,0.0-6.0-3.94,d,344,"Press S if the two images were the same, Press D if the two images were different.",,170494,,391,html-keyboard-response,,
28,condition1,,,,,,0.0-6.0-0.95,,,img2/french/4.jpg,,170705,,392,image-keyboard-response,,
28,condition1,,,,,,0.0-6.0-1.95,,,+,,171017,,393,html-keyboard-response,,
28,condition1,,,,,,0.0-6.0-2.95,,,img2/french/8.jpg,,171222,,394,image-keyboard-response,,
28,condition1,D,R,,,,0.0-6.0-3.95,d,395,"Press S if the two images were the same, Press D if the two images were different.",,171618,,395,html-keyboard-response,,
28,condition1,,,,,,0.0-6.0-0.96,,,img2/faces/6.jpg,,171823,,396,image-keyboard-response,,
28,condition1,,,,,,0.0-6.0-1.96,,,+,,172133,,397,html-keyboard-response,,
28,condition1,,,,,,0.0-6.0-2.96,,,img2/faces/12.jpg,,172363,,398,image-keyboard-response,,
28,condition1,D,H,,,,0.0-6.0-3.96,d,368,"Press S if the two images were the same, Press D if the two images were different.",,172732,,399,html-keyboard-response,,
28,condition1,,,,,,0.0-6.0-0.97,,,img2/Mfaces/9.jpg,,172963,,400,image-keyboard-response,,
28,condition1,,,,,,0.0-6.0-1.97,,,+,,173274,,401,html-keyboard-response,,
28,condition1,,,,,,0.0-6.0-2.97,,,img2/Mfaces/13.jpg,,173501,,402,image-keyboard-response,,
28,condition1,D,H,,,,0.0-6.0-3.97,d,424,"Press S if the two images were the same, Press D if the two images were different.",,173926,,403,html-keyboard-response,,
28,condition1,,,,,,0.0-6.0-0.98,,,img2/faces/11.jpg,,174156,,404,image-keyboard-response,,
28,condition1,,,,,,0.0-6.0-1.98,,,+,,174460,,405,html-keyboard-response,,
28,condition1,,,,,,0.0-6.0-2.98,,,img2/faces/11.jpg,,174665,,406,image-keyboard-response,,
28,condition1,S,H,,,,0.0-6.0-3.98,s,274,"Press S if the two images were the same, Press D if the two images were different.",,174939,,407,html-keyboard-response,,
28,condition1,,,,,,0.0-6.0-0.99,,,img2/false/11.jpg,,175182,,408,image-keyboard-response,,
28,condition1,,,,,,0.0-6.0-1.99,,,+,,175486,,409,html-keyboard-response,,
28,condition1,,,,,,0.0-6.0-2.99,,,img2/false/13.jpg,,175689,,410,image-keyboard-response,,
28,condition1,D,M,,,,0.0-6.0-3.99,d,370,"Press S if the two images were the same, Press D if the two images were different.",,176060,,411,html-keyboard-response,,
28,condition1,,,,,,0.0-6.0-0.100,,,img2/false/4.jpg,,176271,,412,image-keyboard-response,,
28,condition1,,,,,,0.0-6.0-1.100,,,+,,176586,,413,html-keyboard-response,,
28,condition1,,,,,,0.0-6.0-2.100,,,img2/Mfalse/4.jpg,,176833,,414,image-keyboard-response,,
28,condition1,S,M,,,,0.0-6.0-3.100,d,565,"Press S if the two images were the same, Press D if the two images were different.",,177399,,415,html-keyboard-response,,
28,condition1,,,,,,0.0-6.0-0.101,,,img2/Mjap/12.jpg,,177610,,416,image-keyboard-response,,
28,condition1,,,,,,0.0-6.0-1.101,,,+,,177924,,417,html-keyboard-response,,
28,condition1,,,,,,0.0-6.0-2.101,,,img2/Mjap/3.jpg,,178128,,418,image-keyboard-response,,
28,condition1,D,J,,,,0.0-6.0-3.101,d,475,"Press S if the two images were the same, Press D if the two images were different.",,178605,,419,html-keyboard-response,,
28,condition1,,,,,,0.0-6.0-0.102,,,img2/jap/2.jpg,,178854,,420,image-keyboard-response,,
28,condition1,,,,,,0.0-6.0-1.102,,,+,,179166,,421,html-keyboard-response,,
28,condition1,,,,,,0.0-6.0-2.102,,,img2/jap/2.jpg,,179374,,422,image-keyboard-response,,
28,condition1,S,J,,,,0.0-6.0-3.102,s,299,"Press S if the two images were the same, Press D if the two images were different.",,179677,,423,html-keyboard-response,,
28,condition1,,,,,,0.0-6.0-0.103,,,img2/jap/10.jpg,,179926,,424,image-keyboard-response,,
28,condition1,,,,,,0.0-6.0-1.103,,,+,,180234,,425,html-keyboard-response,,
28,condition1,,,,,,0.0-6.0-2.103,,,img2/jap/5.jpg,,180484,,426,image-keyboard-response,,
28,condition1,D,J,,,,0.0-6.0-3.103,d,362,"Press S if the two images were the same, Press D if the two images were different.",,180848,,427,html-keyboard-response,,
28,condition1,,,,,,0.0-6.0-0.104,,,img2/false/8.jpg,,181087,,428,image-keyboard-response,,
28,condition1,,,,,,0.0-6.0-1.104,,,+,,181394,,429,html-keyboard-response,,
28,condition1,,,,,,0.0-6.0-2.104,,,img2/Mfalse/8.jpg,,181641,,430,image-keyboard-response,,
28,condition1,S,M,,,,0.0-6.0-3.104,d,340,"Press S if the two images were the same, Press D if the two images were different.",,181982,,431,html-keyboard-response,,
28,condition1,,,,,,0.0-6.0-0.105,,,img2/jap/8.jpg,,182194,,432,image-keyboard-response,,
28,condition1,,,,,,0.0-6.0-1.105,,,+,,182501,,433,html-keyboard-response,,
28,condition1,,,,,,0.0-6.0-2.105,,,img2/jap/12.jpg,,182713,,434,image-keyboard-response,,
28,condition1,D,J,,,,0.0-6.0-3.105,d,487,"Press S if the two images were the same, Press D if the two images were different.",,183202,,435,html-keyboard-response,,
28,condition1,,,,,,0.0-6.0-0.106,,,img2/jap/12.jpg,,183410,,436,image-keyboard-response,,
28,condition1,,,,,,0.0-6.0-1.106,,,+,,183719,,437,html-keyboard-response,,
28,condition1,,,,,,0.0-6.0-2.106,,,img2/jap/3.jpg,,183959,,438,image-keyboard-response,,
28,condition1,D,J,,,,0.0-6.0-3.106,d,407,"Press S if the two images were the same, Press D if the two images were different.",,184367,,439,html-keyboard-response,,
28,condition1,,,,,,0.0-6.0-0.107,,,img2/faces/14.jpg,,184573,,440,image-keyboard-response,,
28,condition1,,,,,,0.0-6.0-1.107,,,+,,184876,,441,html-keyboard-response,,
28,condition1,,,,,,0.0-6.0-2.107,,,img2/faces/14.jpg,,185088,,442,image-keyboard-response,,
28,condition1,S,H,,,,0.0-6.0-3.107,s,318,"Press S if the two images were the same, Press D if the two images were different.",,185407,,443,html-keyboard-response,,
28,condition1,,,,,,0.0-6.0-0.108,,,img2/faces/6.jpg,,185613,,444,image-keyboard-response,,
28,condition1,,,,,,0.0-6.0-1.108,,,+,,185926,,445,html-keyboard-response,,
28,condition1,,,,,,0.0-6.0-2.108,,,img2/faces/6.jpg,,186136,,446,image-keyboard-response,,
28,condition1,S,H,,,,0.0-6.0-3.108,s,305,"Press S if the two images were the same, Press D if the two images were different.",,186441,,447,html-keyboard-response,,
28,condition1,,,,,,0.0-6.0-0.109,,,img2/french/13.jpg,,186673,,448,image-keyboard-response,,
28,condition1,,,,,,0.0-6.0-1.109,,,+,,186986,,449,html-keyboard-response,,
28,condition1,,,,,,0.0-6.0-2.109,,,img2/french/10.jpg,,187232,,450,image-keyboard-response,,
28,condition1,D,R,,,,0.0-6.0-3.109,d,374,"Press S if the two images were the same, Press D if the two images were different.",,187608,,451,html-keyboard-response,,
28,condition1,,,,,,0.0-6.0-0.110,,,img2/jap/11.jpg,,187857,,452,image-keyboard-response,,
28,condition1,,,,,,0.0-6.0-1.110,,,+,,188169,,453,html-keyboard-response,,
28,condition1,,,,,,0.0-6.0-2.110,,,img2/Mjap/11.jpg,,188382,,454,image-keyboard-response,,
28,condition1,S,J,,,,0.0-6.0-3.110,s,326,"Press S if the two images were the same, Press D if the two images were different.",,188709,,455,html-keyboard-response,,
28,condition1,,,,,,0.0-6.0-0.111,,,img2/Mjap/7.jpg,,188926,,456,image-keyboard-response,,
28,condition1,,,,,,0.0-6.0-1.111,,,+,,189242,,457,html-keyboard-response,,
28,condition1,,,,,,0.0-6.0-2.111,,,img2/Mjap/6.jpg,,189456,,458,image-keyboard-response,,
28,condition1,D,J,,,,0.0-6.0-3.111,d,425,"Press S if the two images were the same, Press D if the two images were different.",,189882,,459,html-keyboard-response,,
28,condition1,,,,,,0.0-6.0-0.112,,,img2/Mfaces/5.jpg,,190119,,460,image-keyboard-response,,
28,condition1,,,,,,0.0-6.0-1.112,,,+,,190434,,461,html-keyboard-response,,
28,condition1,,,,,,0.0-6.0-2.112,,,img2/Mfaces/6.jpg,,190637,,462,image-keyboard-response,,
28,condition1,D,H,,,,0.0-6.0-3.112,d,534,"Press S if the two images were the same, Press D if the two images were different.",,191172,,463,html-keyboard-response,,
28,condition1,,,,,,0.0-6.0-0.113,,,img2/false/9.jpg,,191411,,464,image-keyboard-response,,
28,condition1,,,,,,0.0-6.0-1.113,,,+,,191713,,465,html-keyboard-response,,
28,condition1,,,,,,0.0-6.0-2.113,,,img2/false/9.jpg,,191919,,466,image-keyboard-response,,
28,condition1,S,M,,,,0.0-6.0-3.113,s,387,"Press S if the two images were the same, Press D if the two images were different.",,192306,,467,html-keyboard-response,,
28,condition1,,,,,,0.0-6.0-0.114,,,img2/faces/1.jpg,,192514,,468,image-keyboard-response,,
28,condition1,,,,,,0.0-6.0-1.114,,,+,,192828,,469,html-keyboard-response,,
28,condition1,,,,,,0.0-6.0-2.114,,,img2/faces/1.jpg,,193031,,470,image-keyboard-response,,
28,condition1,S,H,,,,0.0-6.0-3.114,s,320,"Press S if the two images were the same, Press D if the two images were different.",,193352,,471,html-keyboard-response,,
28,condition1,,,,,,0.0-6.0-0.115,,,img2/french/9.jpg,,193587,,472,image-keyboard-response,,
28,condition1,,,,,,0.0-6.0-1.115,,,+,,193889,,473,html-keyboard-response,,
28,condition1,,,,,,0.0-6.0-2.115,,,img2/french/13.jpg,,194095,,474,image-keyboard-response,,
28,condition1,D,R,,,,0.0-6.0-3.115,d,346,"Press S if the two images were the same, Press D if the two images were different.",,194443,,475,html-keyboard-response,,
28,condition1,,,,,,0.0-6.0-0.116,,,img2/tools/12.jpg,,194653,,476,image-keyboard-response,,
28,condition1,,,,,,0.0-6.0-1.116,,,+,,194972,,477,html-keyboard-response,,
28,condition1,,,,,,0.0-6.0-2.116,,,img2/tools/12.jpg,,195176,,478,image-keyboard-response,,
28,condition1,S,O,,,,0.0-6.0-3.116,s,264,"Press S if the two images were the same, Press D if the two images were different.",,195441,,479,html-keyboard-response,,
28,condition1,,,,,,0.0-6.0-0.117,,,img2/jap/9.jpg,,195697,,480,image-keyboard-response,,
28,condition1,,,,,,0.0-6.0-1.117,,,+,,196010,,481,html-keyboard-response,,
28,condition1,,,,,,0.0-6.0-2.117,,,img2/Mjap/9.jpg,,196214,,482,image-keyboard-response,,
28,condition1,S,J,,,,0.0-6.0-3.117,d,454,"Press S if the two images were the same, Press D if the two images were different.",,196669,,483,html-keyboard-response,,
28,condition1,,,,,,0.0-6.0-0.118,,,img2/Mtools/5.jpg,,196878,,484,image-keyboard-response,,
28,condition1,,,,,,0.0-6.0-1.118,,,+,,197199,,485,html-keyboard-response,,
28,condition1,,,,,,0.0-6.0-2.118,,,img2/Mtools/6.jpg,,197411,,486,image-keyboard-response,,
28,condition1,D,O,,,,0.0-6.0-3.118,d,497,"Press S if the two images were the same, Press D if the two images were different.",,197908,,487,html-keyboard-response,,
28,condition1,,,,,,0.0-6.0-0.119,,,img2/french/14.jpg,,198146,,488,image-keyboard-response,,
28,condition1,,,,,,0.0-6.0-1.119,,,+,,198447,,489,html-keyboard-response,,
28,condition1,,,,,,0.0-6.0-2.119,,,img2/french/7.jpg,,198656,,490,image-keyboard-response,,
28,condition1,D,R,,,,0.0-6.0-3.119,d,440,"Press S if the two images were the same, Press D if the two images were different.",,199098,,491,html-keyboard-response,,
28,condition1,,,,,,0.0-6.0-0.120,,,img2/tools/14.jpg,,199312,,492,image-keyboard-response,,
28,condition1,,,,,,0.0-6.0-1.120,,,+,,199617,,493,html-keyboard-response,,
28,condition1,,,,,,0.0-6.0-2.120,,,img2/tools/14.jpg,,199831,,494,image-keyboard-response,,
28,condition1,S,O,,,,0.0-6.0-3.120,s,263,"Press S if the two images were the same, Press D if the two images were different.",,200094,,495,html-keyboard-response,,
28,condition1,,,,,,0.0-6.0-0.121,,,img2/Mtools/7.jpg,,200306,,496,image-keyboard-response,,
28,condition1,,,,,,0.0-6.0-1.121,,,+,,200620,,497,html-keyboard-response,,
28,condition1,,,,,,0.0-6.0-2.121,,,img2/Mtools/6.jpg,,200833,,498,image-keyboard-response,,
28,condition1,D,O,,,,0.0-6.0-3.121,d,368,"Press S if the two images were the same, Press D if the two images were different.",,201201,,499,html-keyboard-response,,
28,condition1,,,,,,0.0-6.0-0.122,,,img2/false/8.jpg,,201404,,500,image-keyboard-response,,
28,condition1,,,,,,0.0-6.0-1.122,,,+,,201705,,501,html-keyboard-response,,
28,condition1,,,,,,0.0-6.0-2.122,,,img2/false/8.jpg,,201908,,502,image-keyboard-response,,
28,condition1,S,M,,,,0.0-6.0-3.122,s,633,"Press S if the two images were the same, Press D if the two images were different.",,202543,,503,html-keyboard-response,,
28,condition1,,,,,,0.0-6.0-0.123,,,img2/jap/14.jpg,,202748,,504,image-keyboard-response,,
28,condition1,,,,,,0.0-6.0-1.123,,,+,,203050,,505,html-keyboard-response,,
28,condition1,,,,,,0.0-6.0-2.123,,,img2/Mjap/14.jpg,,203289,,506,image-keyboard-response,,
28,condition1,S,J,,,,0.0-6.0-3.123,d,527,"Press S if the two images were the same, Press D if the two images were different.",,203817,,507,html-keyboard-response,,
28,condition1,,,,,,0.0-6.0-0.124,,,img2/false/1.jpg,,204029,,508,image-keyboard-response,,
28,condition1,,,,,,0.0-6.0-1.124,,,+,,204334,,509,html-keyboard-response,,
28,condition1,,,,,,0.0-6.0-2.124,,,img2/Mfalse/1.jpg,,204580,,510,image-keyboard-response,,
28,condition1,S,M,,,,0.0-6.0-3.124,d,590,"Press S if the two images were the same, Press D if the two images were different.",,205171,,511,html-keyboard-response,,
28,condition1,,,,,,0.0-6.0-0.125,,,img2/Mfaces/12.jpg,,205374,,512,image-keyboard-response,,
28,condition1,,,,,,0.0-6.0-1.125,,,+,,205686,,513,html-keyboard-response,,
28,condition1,,,,,,0.0-6.0-2.125,,,img2/Mfaces/3.jpg,,205902,,514,image-keyboard-response,,
28,condition1,D,H,,,,0.0-6.0-3.125,d,676,"Press S if the two images were the same, Press D if the two images were different.",,206578,,515,html-keyboard-response,,
28,condition1,,,,,,0.0-6.0-0.126,,,img2/jap/8.jpg,,206786,,516,image-keyboard-response,,
28,condition1,,,,,,0.0-6.0-1.126,,,+,,207097,,517,html-keyboard-response,,
28,condition1,,,,,,0.0-6.0-2.126,,,img2/Mjap/8.jpg,,207300,,518,image-keyboard-response,,
28,condition1,S,J,,,,0.0-6.0-3.126,d,516,"Press S if the two images were the same, Press D if the two images were different.",,207817,,519,html-keyboard-response,,
28,condition1,,,,,,0.0-6.0-0.127,,,img2/tools/3.jpg,,208029,,520,image-keyboard-response,,
28,condition1,,,,,,0.0-6.0-1.127,,,+,,208344,,521,html-keyboard-response,,
28,condition1,,,,,,0.0-6.0-2.127,,,img2/tools/3.jpg,,208550,,522,image-keyboard-response,,
28,condition1,S,O,,,,0.0-6.0-3.127,s,284,"Press S if the two images were the same, Press D if the two images were different.",,208836,,523,html-keyboard-response,,
28,condition1,,,,,,0.0-6.0-0.128,,,img2/false/4.jpg,,209052,,524,image-keyboard-response,,
28,condition1,,,,,,0.0-6.0-1.128,,,+,,209367,,525,html-keyboard-response,,
28,condition1,,,,,,0.0-6.0-2.128,,,img2/false/8.jpg,,209583,,526,image-keyboard-response,,
28,condition1,D,M,,,,0.0-6.0-3.128,d,482,"Press S if the two images were the same, Press D if the two images were different.",,210066,,527,html-keyboard-response,,
28,condition1,,,,,,0.0-6.0-0.129,,,img2/french/14.jpg,,210282,,528,image-keyboard-response,,
28,condition1,,,,,,0.0-6.0-1.129,,,+,,210587,,529,html-keyboard-response,,
28,condition1,,,,,,0.0-6.0-2.129,,,img2/Mfrench/14.jpg,,210832,,530,image-keyboard-response,,
28,condition1,S,R,,,,0.0-6.0-3.129,d,531,"Press S if the two images were the same, Press D if the two images were different.",,211363,,531,html-keyboard-response,,
28,condition1,,,,,,0.0-6.0-0.130,,,img2/false/3.jpg,,211570,,532,image-keyboard-response,,
28,condition1,,,,,,0.0-6.0-1.130,,,+,,211879,,533,html-keyboard-response,,
28,condition1,,,,,,0.0-6.0-2.130,,,img2/false/2.jpg,,212128,,534,image-keyboard-response,,
28,condition1,D,M,,,,0.0-6.0-3.130,d,494,"Press S if the two images were the same, Press D if the two images were different.",,212622,,535,html-keyboard-response,,
28,condition1,,,,,,0.0-6.0-0.131,,,img2/Mfaces/1.jpg,,212845,,536,image-keyboard-response,,
28,condition1,,,,,,0.0-6.0-1.131,,,+,,213160,,537,html-keyboard-response,,
28,condition1,,,,,,0.0-6.0-2.131,,,img2/Mfaces/10.jpg,,213399,,538,image-keyboard-response,,
28,condition1,D,H,,,,0.0-6.0-3.131,d,358,"Press S if the two images were the same, Press D if the two images were different.",,213758,,539,html-keyboard-response,,
28,condition1,,,,,,0.0-6.0-0.132,,,img2/faces/13.jpg,,213988,,540,image-keyboard-response,,
28,condition1,,,,,,0.0-6.0-1.132,,,+,,214292,,541,html-keyboard-response,,
28,condition1,,,,,,0.0-6.0-2.132,,,img2/faces/10.jpg,,214506,,542,image-keyboard-response,,
28,condition1,D,H,,,,0.0-6.0-3.132,d,385,"Press S if the two images were the same, Press D if the two images were different.",,214892,,543,html-keyboard-response,,
28,condition1,,,,,,0.0-6.0-0.133,,,img2/faces/8.jpg,,215106,,544,image-keyboard-response,,
28,condition1,,,,,,0.0-6.0-1.133,,,+,,215408,,545,html-keyboard-response,,
28,condition1,,,,,,0.0-6.0-2.133,,,img2/faces/12.jpg,,215622,,546,image-keyboard-response,,
28,condition1,D,H,,,,0.0-6.0-3.133,d,374,"Press S if the two images were the same, Press D if the two images were different.",,215997,,547,html-keyboard-response,,
28,condition1,,,,,,0.0-6.0-0.134,,,img2/french/2.jpg,,216244,,548,image-keyboard-response,,
28,condition1,,,,,,0.0-6.0-1.134,,,+,,216556,,549,html-keyboard-response,,
28,condition1,,,,,,0.0-6.0-2.134,,,img2/french/2.jpg,,216765,,550,image-keyboard-response,,
28,condition1,S,R,,,,0.0-6.0-3.134,s,362,"Press S if the two images were the same, Press D if the two images were different.",,217128,,551,html-keyboard-response,,
28,condition1,,,,,,0.0-6.0-0.135,,,img2/false/10.jpg,,217342,,552,image-keyboard-response,,
28,condition1,,,,,,0.0-6.0-1.135,,,+,,217655,,553,html-keyboard-response,,
28,condition1,,,,,,0.0-6.0-2.135,,,img2/Mfalse/10.jpg,,217913,,554,image-keyboard-response,,
28,condition1,S,M,,,,0.0-6.0-3.135,d,365,"Press S if the two images were the same, Press D if the two images were different.",,218279,,555,html-keyboard-response,,
28,condition1,,,,,,0.0-6.0-0.136,,,img2/tools/9.jpg,,218494,,556,image-keyboard-response,,
28,condition1,,,,,,0.0-6.0-1.136,,,+,,218809,,557,html-keyboard-response,,
28,condition1,,,,,,0.0-6.0-2.136,,,img2/tools/9.jpg,,219018,,558,image-keyboard-response,,
28,condition1,S,O,,,,0.0-6.0-3.136,d,536,"Press S if the two images were the same, Press D if the two images were different.",,219556,,559,html-keyboard-response,,
28,condition1,,,,,,0.0-6.0-0.137,,,img2/Mfalse/1.jpg,,219766,,560,image-keyboard-response,,
28,condition1,,,,,,0.0-6.0-1.137,,,+,,220075,,561,html-keyboard-response,,
28,condition1,,,,,,0.0-6.0-2.137,,,img2/Mfalse/10.jpg,,220287,,562,image-keyboard-response,,
28,condition1,D,M,,,,0.0-6.0-3.137,s,1038,"Press S if the two images were the same, Press D if the two images were different.",,221326,,563,html-keyboard-response,,
28,condition1,,,,,,0.0-6.0-0.138,,,img2/jap/7.jpg,,221536,,564,image-keyboard-response,,
28,condition1,,,,,,0.0-6.0-1.138,,,+,,221848,,565,html-keyboard-response,,
28,condition1,,,,,,0.0-6.0-2.138,,,img2/jap/7.jpg,,222057,,566,image-keyboard-response,,
28,condition1,S,J,,,,0.0-6.0-3.138,s,363,"Press S if the two images were the same, Press D if the two images were different.",,222421,,567,html-keyboard-response,,
28,condition1,,,,,,0.0-6.0-0.139,,,img2/false/12.jpg,,222630,,568,image-keyboard-response,,
28,condition1,,,,,,0.0-6.0-1.139,,,+,,222932,,569,html-keyboard-response,,
28,condition1,,,,,,0.0-6.0-2.139,,,img2/Mfalse/12.jpg,,223142,,570,image-keyboard-response,,
28,condition1,S,M,,,,0.0-6.0-3.139,d,419,"Press S if the two images were the same, Press D if the two images were different.",,223564,,571,html-keyboard-response,,
28,condition1,,,,,,0.0-6.0-0.140,,,img2/tools/3.jpg,,223771,,572,image-keyboard-response,,
28,condition1,,,,,,0.0-6.0-1.140,,,+,,224088,,573,html-keyboard-response,,
28,condition1,,,,,,0.0-6.0-2.140,,,img2/tools/2.jpg,,224310,,574,image-keyboard-response,,
28,condition1,D,O,,,,0.0-6.0-3.140,d,434,"Press S if the two images were the same, Press D if the two images were different.",,224745,,575,html-keyboard-response,,
28,condition1,,,,,,0.0-6.0-0.141,,,img2/false/13.jpg,,224959,,576,image-keyboard-response,,
28,condition1,,,,,,0.0-6.0-1.141,,,+,,225274,,577,html-keyboard-response,,
28,condition1,,,,,,0.0-6.0-2.141,,,img2/false/10.jpg,,225485,,578,image-keyboard-response,,
28,condition1,D,M,,,,0.0-6.0-3.141,d,487,"Press S if the two images were the same, Press D if the two images were different.",,225972,,579,html-keyboard-response,,
28,condition1,,,,,,0.0-6.0-0.142,,,img2/Mfrench/1.jpg,,226193,,580,image-keyboard-response,,
28,condition1,,,,,,0.0-6.0-1.142,,,+,,226511,,581,html-keyboard-response,,
28,condition1,,,,,,0.0-6.0-2.142,,,img2/Mfrench/10.jpg,,226767,,582,image-keyboard-response,,
28,condition1,D,R,,,,0.0-6.0-3.142,d,1351,"Press S if the two images were the same, Press D if the two images were different.",,228119,,583,html-keyboard-response,,
28,condition1,,,,,,0.0-6.0-0.143,,,img2/faces/9.jpg,,228346,,584,image-keyboard-response,,
28,condition1,,,,,,0.0-6.0-1.143,,,+,,228661,,585,html-keyboard-response,,
28,condition1,,,,,,0.0-6.0-2.143,,,img2/faces/13.jpg,,228870,,586,image-keyboard-response,,
28,condition1,D,H,,,,0.0-6.0-3.143,d,497,"Press S if the two images were the same, Press D if the two images were different.",,229368,,587,html-keyboard-response,,
28,condition1,,,,,,0.0-6.0-0.144,,,img2/false/12.jpg,,229574,,588,image-keyboard-response,,
28,condition1,,,,,,0.0-6.0-1.144,,,+,,229890,,589,html-keyboard-response,,
28,condition1,,,,,,0.0-6.0-2.144,,,img2/false/12.jpg,,230096,,590,image-keyboard-response,,
28,condition1,S,M,,,,0.0-6.0-3.144,s,337,"Press S if the two images were the same, Press D if the two images were different.",,230434,,591,html-keyboard-response,,
28,condition1,,,,,,0.0-6.0-0.145,,,img2/false/3.jpg,,230640,,592,image-keyboard-response,,
28,condition1,,,,,,0.0-6.0-1.145,,,+,,230949,,593,html-keyboard-response,,
28,condition1,,,,,,0.0-6.0-2.145,,,img2/false/3.jpg,,231157,,594,image-keyboard-response,,
28,condition1,S,M,,,,0.0-6.0-3.145,s,430,"Press S if the two images were the same, Press D if the two images were different.",,231589,,595,html-keyboard-response,,
28,condition1,,,,,,0.0-6.0-0.146,,,img2/false/7.jpg,,231829,,596,image-keyboard-response,,
28,condition1,,,,,,0.0-6.0-1.146,,,+,,232144,,597,html-keyboard-response,,
28,condition1,,,,,,0.0-6.0-2.146,,,img2/Mfalse/7.jpg,,232379,,598,image-keyboard-response,,
28,condition1,S,M,,,,0.0-6.0-3.146,d,369,"Press S if the two images were the same, Press D if the two images were different.",,232748,,599,html-keyboard-response,,
28,condition1,,,,,,0.0-6.0-0.147,,,img2/french/10.jpg,,232963,,600,image-keyboard-response,,
28,condition1,,,,,,0.0-6.0-1.147,,,+,,233276,,601,html-keyboard-response,,
28,condition1,,,,,,0.0-6.0-2.147,,,img2/french/5.jpg,,233511,,602,image-keyboard-response,,
28,condition1,D,R,,,,0.0-6.0-3.147,d,410,"Press S if the two images were the same, Press D if the two images were different.",,233922,,603,html-keyboard-response,,
28,condition1,,,,,,0.0-6.0-0.148,,,img2/false/2.jpg,,234128,,604,image-keyboard-response,,
28,condition1,,,,,,0.0-6.0-1.148,,,+,,234431,,605,html-keyboard-response,,
28,condition1,,,,,,0.0-6.0-2.148,,,img2/false/2.jpg,,234642,,606,image-keyboard-response,,
28,condition1,S,M,,,,0.0-6.0-3.148,s,391,"Press S if the two images were the same, Press D if the two images were different.",,235034,,607,html-keyboard-response,,
28,condition1,,,,,,0.0-6.0-0.149,,,img2/Mfaces/7.jpg,,235261,,608,image-keyboard-response,,
28,condition1,,,,,,0.0-6.0-1.149,,,+,,235564,,609,html-keyboard-response,,
28,condition1,,,,,,0.0-6.0-2.149,,,img2/Mfaces/6.jpg,,235776,,610,image-keyboard-response,,
28,condition1,D,H,,,,0.0-6.0-3.149,d,448,"Press S if the two images were the same, Press D if the two images were different.",,236225,,611,html-keyboard-response,,
28,condition1,,,,,,0.0-6.0-0.150,,,img2/tools/5.jpg,,236431,,612,image-keyboard-response,,
28,condition1,,,,,,0.0-6.0-1.150,,,+,,236738,,613,html-keyboard-response,,
28,condition1,,,,,,0.0-6.0-2.150,,,img2/tools/5.jpg,,236941,,614,image-keyboard-response,,
28,condition1,S,O,,,,0.0-6.0-3.150,s,311,"Press S if the two images were the same, Press D if the two images were different.",,237253,,615,html-keyboard-response,,
28,condition1,,,,,,0.0-6.0-0.151,,,img2/tools/7.jpg,,237460,,616,image-keyboard-response,,
28,condition1,,,,,,0.0-6.0-1.151,,,+,,237765,,617,html-keyboard-response,,
28,condition1,,,,,,0.0-6.0-2.151,,,img2/tools/7.jpg,,237977,,618,image-keyboard-response,,
28,condition1,S,O,,,,0.0-6.0-3.151,s,329,"Press S if the two images were the same, Press D if the two images were different.",,238306,,619,html-keyboard-response,,
28,condition1,,,,,,0.0-6.0-0.152,,,img2/Mfaces/11.jpg,,238538,,620,image-keyboard-response,,
28,condition1,,,,,,0.0-6.0-1.152,,,+,,238841,,621,html-keyboard-response,,
28,condition1,,,,,,0.0-6.0-2.152,,,img2/Mfaces/13.jpg,,239050,,622,image-keyboard-response,,
28,condition1,D,H,,,,0.0-6.0-3.152,d,351,"Press S if the two images were the same, Press D if the two images were different.",,239403,,623,html-keyboard-response,,
28,condition1,,,,,,0.0-6.0-0.153,,,img2/faces/14.jpg,,239611,,624,image-keyboard-response,,
28,condition1,,,,,,0.0-6.0-1.153,,,+,,239919,,625,html-keyboard-response,,
28,condition1,,,,,,0.0-6.0-2.153,,,img2/Mfaces/14.jpg,,240154,,626,image-keyboard-response,,
28,condition1,S,H,,,,0.0-6.0-3.153,s,467,"Press S if the two images were the same, Press D if the two images were different.",,240620,,627,html-keyboard-response,,
28,condition1,,,,,,0.0-6.0-0.154,,,img2/faces/3.jpg,,240837,,628,image-keyboard-response,,
28,condition1,,,,,,0.0-6.0-1.154,,,+,,241144,,629,html-keyboard-response,,
28,condition1,,,,,,0.0-6.0-2.154,,,img2/faces/3.jpg,,241350,,630,image-keyboard-response,,
28,condition1,S,H,,,,0.0-6.0-3.154,s,346,"Press S if the two images were the same, Press D if the two images were different.",,241697,,631,html-keyboard-response,,
28,condition1,,,,,,0.0-6.0-0.155,,,img2/false/10.jpg,,241902,,632,image-keyboard-response,,
28,condition1,,,,,,0.0-6.0-1.155,,,+,,242214,,633,html-keyboard-response,,
28,condition1,,,,,,0.0-6.0-2.155,,,img2/false/10.jpg,,242428,,634,image-keyboard-response,,
28,condition1,S,M,,,,0.0-6.0-3.155,s,322,"Press S if the two images were the same, Press D if the two images were different.",,242750,,635,html-keyboard-response,,
28,condition1,,,,,,0.0-6.0-0.156,,,img2/french/12.jpg,,242991,,636,image-keyboard-response,,
28,condition1,,,,,,0.0-6.0-1.156,,,+,,243303,,637,html-keyboard-response,,
28,condition1,,,,,,0.0-6.0-2.156,,,img2/french/3.jpg,,243544,,638,image-keyboard-response,,
28,condition1,D,R,,,,0.0-6.0-3.156,d,404,"Press S if the two images were the same, Press D if the two images were different.",,243950,,639,html-keyboard-response,,
28,condition1,,,,,,0.0-6.0-0.157,,,img2/Mtools/9.jpg,,244169,,640,image-keyboard-response,,
28,condition1,,,,,,0.0-6.0-1.157,,,+,,244473,,641,html-keyboard-response,,
28,condition1,,,,,,0.0-6.0-2.157,,,img2/Mtools/13.jpg,,244687,,642,image-keyboard-response,,
28,condition1,D,O,,,,0.0-6.0-3.157,d,451,"Press S if the two images were the same, Press D if the two images were different.",,245139,,643,html-keyboard-response,,
28,condition1,,,,,,0.0-6.0-0.158,,,img2/Mfrench/13.jpg,,245380,,644,image-keyboard-response,,
28,condition1,,,,,,0.0-6.0-1.158,,,+,,245683,,645,html-keyboard-response,,
28,condition1,,,,,,0.0-6.0-2.158,,,img2/Mfrench/10.jpg,,245888,,646,image-keyboard-response,,
28,condition1,D,R,,,,0.0-6.0-3.158,s,372,"Press S if the two images were the same, Press D if the two images were different.",,246260,,647,html-keyboard-response,,
28,condition1,,,,,,0.0-6.0-0.159,,,img2/tools/2.jpg,,246468,,648,image-keyboard-response,,
28,condition1,,,,,,0.0-6.0-1.159,,,+,,246777,,649,html-keyboard-response,,
28,condition1,,,,,,0.0-6.0-2.159,,,img2/tools/2.jpg,,246990,,650,image-keyboard-response,,
28,condition1,S,O,,,,0.0-6.0-3.159,s,355,"Press S if the two images were the same, Press D if the two images were different.",,247346,,651,html-keyboard-response,,
28,condition1,,,,,,0.0-6.0-0.160,,,img2/faces/1.jpg,,247554,,652,image-keyboard-response,,
28,condition1,,,,,,0.0-6.0-1.160,,,+,,247867,,653,html-keyboard-response,,
28,condition1,,,,,,0.0-6.0-2.160,,,img2/Mfaces/1.jpg,,248081,,654,image-keyboard-response,,
28,condition1,S,H,,,,0.0-6.0-3.160,s,371,"Press S if the two images were the same, Press D if the two images were different.",,248453,,655,html-keyboard-response,,
28,condition1,,,,,,0.0-6.0-0.161,,,img2/faces/13.jpg,,248659,,656,image-keyboard-response,,
28,condition1,,,,,,0.0-6.0-1.161,,,+,,248963,,657,html-keyboard-response,,
28,condition1,,,,,,0.0-6.0-2.161,,,img2/faces/13.jpg,,249164,,658,image-keyboard-response,,
28,condition1,S,H,,,,0.0-6.0-3.161,s,580,"Press S if the two images were the same, Press D if the two images were different.",,249746,,659,html-keyboard-response,,
28,condition1,,,,,,0.0-6.0-0.162,,,img2/tools/11.jpg,,249960,,660,image-keyboard-response,,
28,condition1,,,,,,0.0-6.0-1.162,,,+,,250266,,661,html-keyboard-response,,
28,condition1,,,,,,0.0-6.0-2.162,,,img2/tools/11.jpg,,250481,,662,image-keyboard-response,,
28,condition1,S,O,,,,0.0-6.0-3.162,s,307,"Press S if the two images were the same, Press D if the two images were different.",,250788,,663,html-keyboard-response,,
28,condition1,,,,,,0.0-6.0-0.163,,,img2/french/7.jpg,,250993,,664,image-keyboard-response,,
28,condition1,,,,,,0.0-6.0-1.163,,,+,,251298,,665,html-keyboard-response,,
28,condition1,,,,,,0.0-6.0-2.163,,,img2/french/7.jpg,,251509,,666,image-keyboard-response,,
28,condition1,S,R,,,,0.0-6.0-3.163,s,402,"Press S if the two images were the same, Press D if the two images were different.",,251913,,667,html-keyboard-response,,
28,condition1,,,,,,0.0-6.0-0.164,,,img2/Mfaces/2.jpg,,252136,,668,image-keyboard-response,,
28,condition1,,,,,,0.0-6.0-1.164,,,+,,252449,,669,html-keyboard-response,,
28,condition1,,,,,,0.0-6.0-2.164,,,img2/Mfaces/8.jpg,,252677,,670,image-keyboard-response,,
28,condition1,D,H,,,,0.0-6.0-3.164,d,389,"Press S if the two images were the same, Press D if the two images were different.",,253069,,671,html-keyboard-response,,
28,condition1,,,,,,0.0-6.0-0.165,,,img2/french/10.jpg,,253283,,672,image-keyboard-response,,
28,condition1,,,,,,0.0-6.0-1.165,,,+,,253590,,673,html-keyboard-response,,
28,condition1,,,,,,0.0-6.0-2.165,,,img2/Mfrench/10.jpg,,253795,,674,image-keyboard-response,,
28,condition1,S,R,,,,0.0-6.0-3.165,s,424,"Press S if the two images were the same, Press D if the two images were different.",,254220,,675,html-keyboard-response,,
28,condition1,,,,,,0.0-6.0-0.166,,,img2/jap/3.jpg,,254432,,676,image-keyboard-response,,
28,condition1,,,,,,0.0-6.0-1.166,,,+,,254740,,677,html-keyboard-response,,
28,condition1,,,,,,0.0-6.0-2.166,,,img2/jap/3.jpg,,254945,,678,image-keyboard-response,,
28,condition1,S,J,,,,0.0-6.0-3.166,s,663,"Press S if the two images were the same, Press D if the two images were different.",,255609,,679,html-keyboard-response,,
28,condition1,,,,,,0.0-6.0-0.167,,,img2/tools/5.jpg,,255816,,680,image-keyboard-response,,
28,condition1,,,,,,0.0-6.0-1.167,,,+,,256122,,681,html-keyboard-response,,
28,condition1,,,,,,0.0-6.0-2.167,,,img2/Mtools/5.jpg,,256330,,682,image-keyboard-response,,
28,condition1,S,O,,,,0.0-6.0-3.167,s,300,"Press S if the two images were the same, Press D if the two images were different.",,256630,,683,html-keyboard-response,,
28,condition1,,,,,,0.0-6.0-0.168,,,img2/Mfrench/10.jpg,,256842,,684,image-keyboard-response,,
28,condition1,,,,,,0.0-6.0-1.168,,,+,,257149,,685,html-keyboard-response,,
28,condition1,,,,,,0.0-6.0-2.168,,,img2/Mfrench/5.jpg,,257401,,686,image-keyboard-response,,
28,condition1,D,R,,,,0.0-6.0-3.168,d,466,"Press S if the two images were the same, Press D if the two images were different.",,257868,,687,html-keyboard-response,,
28,condition1,,,,,,0.0-6.0-0.169,,,img2/Mfrench/8.jpg,,258113,,688,image-keyboard-response,,
28,condition1,,,,,,0.0-6.0-1.169,,,+,,258425,,689,html-keyboard-response,,
28,condition1,,,,,,0.0-6.0-2.169,,,img2/Mfrench/12.jpg,,258668,,690,image-keyboard-response,,
28,condition1,D,R,,,,0.0-6.0-3.169,d,613,"Press S if the two images were the same, Press D if the two images were different.",,259282,,691,html-keyboard-response,,
28,condition1,,,,,,0.0-6.0-0.170,,,img2/tools/6.jpg,,259497,,692,image-keyboard-response,,
28,condition1,,,,,,0.0-6.0-1.170,,,+,,259805,,693,html-keyboard-response,,
28,condition1,,,,,,0.0-6.0-2.170,,,img2/Mtools/6.jpg,,260021,,694,image-keyboard-response,,
28,condition1,S,O,,,,0.0-6.0-3.170,s,265,"Press S if the two images were the same, Press D if the two images were different.",,260288,,695,html-keyboard-response,,
28,condition1,,,,,,0.0-6.0-0.171,,,img2/french/1.jpg,,260534,,696,image-keyboard-response,,
28,condition1,,,,,,0.0-6.0-1.171,,,+,,260847,,697,html-keyboard-response,,
28,condition1,,,,,,0.0-6.0-2.171,,,img2/french/1.jpg,,261056,,698,image-keyboard-response,,
28,condition1,S,R,,,,0.0-6.0-3.171,s,285,"Press S if the two images were the same, Press D if the two images were different.",,261343,,699,html-keyboard-response,,
28,condition1,,,,,,0.0-6.0-0.172,,,img2/false/3.jpg,,261547,,700,image-keyboard-response,,
28,condition1,,,,,,0.0-6.0-1.172,,,+,,261852,,701,html-keyboard-response,,
28,condition1,,,,,,0.0-6.0-2.172,,,img2/Mfalse/3.jpg,,262107,,702,image-keyboard-response,,
28,condition1,S,M,,,,0.0-6.0-3.172,d,344,"Press S if the two images were the same, Press D if the two images were different.",,262452,,703,html-keyboard-response,,
28,condition1,,,,,,0.0-6.0-0.173,,,img2/Mfaces/10.jpg,,262655,,704,image-keyboard-response,,
28,condition1,,,,,,0.0-6.0-1.173,,,+,,262967,,705,html-keyboard-response,,
28,condition1,,,,,,0.0-6.0-2.173,,,img2/Mfaces/5.jpg,,263177,,706,image-keyboard-response,,
28,condition1,D,H,,,,0.0-6.0-3.173,d,492,"Press S if the two images were the same, Press D if the two images were different.",,263670,,707,html-keyboard-response,,
28,condition1,,,,,,0.0-6.0-0.174,,,img2/french/9.jpg,,263877,,708,image-keyboard-response,,
28,condition1,,,,,,0.0-6.0-1.174,,,+,,264189,,709,html-keyboard-response,,
28,condition1,,,,,,0.0-6.0-2.174,,,img2/Mfrench/9.jpg,,264438,,710,image-keyboard-response,,
28,condition1,S,R,,,,0.0-6.0-3.174,s,407,"Press S if the two images were the same, Press D if the two images were different.",,264844,,711,html-keyboard-response,,
28,condition1,,,,,,0.0-6.0-0.175,,,img2/jap/2.jpg,,265049,,712,image-keyboard-response,,
28,condition1,,,,,,0.0-6.0-1.175,,,+,,265361,,713,html-keyboard-response,,
28,condition1,,,,,,0.0-6.0-2.175,,,img2/jap/8.jpg,,265566,,714,image-keyboard-response,,
28,condition1,D,J,,,,0.0-6.0-3.175,d,499,"Press S if the two images were the same, Press D if the two images were different.",,266066,,715,html-keyboard-response,,
28,condition1,,,,,,0.0-6.0-0.176,,,img2/french/11.jpg,,266307,,716,image-keyboard-response,,
28,condition1,,,,,,0.0-6.0-1.176,,,+,,266618,,717,html-keyboard-response,,
28,condition1,,,,,,0.0-6.0-2.176,,,img2/french/11.jpg,,266825,,718,image-keyboard-response,,
28,condition1,S,R,,,,0.0-6.0-3.176,s,400,"Press S if the two images were the same, Press D if the two images were different.",,267227,,719,html-keyboard-response,,
28,condition1,,,,,,0.0-6.0-0.177,,,img2/tools/7.jpg,,267439,,720,image-keyboard-response,,
28,condition1,,,,,,0.0-6.0-1.177,,,+,,267749,,721,html-keyboard-response,,
28,condition1,,,,,,0.0-6.0-2.177,,,img2/Mtools/7.jpg,,267954,,722,image-keyboard-response,,
28,condition1,S,O,,,,0.0-6.0-3.177,s,378,"Press S if the two images were the same, Press D if the two images were different.",,268332,,723,html-keyboard-response,,
28,condition1,,,,,,0.0-6.0-0.178,,,img2/jap/11.jpg,,268546,,724,image-keyboard-response,,
28,condition1,,,,,,0.0-6.0-1.178,,,+,,268855,,725,html-keyboard-response,,
28,condition1,,,,,,0.0-6.0-2.178,,,img2/jap/11.jpg,,269062,,726,image-keyboard-response,,
28,condition1,S,J,,,,0.0-6.0-3.178,s,357,"Press S if the two images were the same, Press D if the two images were different.",,269420,,727,html-keyboard-response,,
28,condition1,,,,,,0.0-6.0-0.179,,,img2/Mfalse/4.jpg,,269630,,728,image-keyboard-response,,
28,condition1,,,,,,0.0-6.0-1.179,,,+,,269942,,729,html-keyboard-response,,
28,condition1,,,,,,0.0-6.0-2.179,,,img2/Mfalse/8.jpg,,270151,,730,image-keyboard-response,,
28,condition1,D,M,,,,0.0-6.0-3.179,d,364,"Press S if the two images were the same, Press D if the two images were different.",,270516,,731,html-keyboard-response,,
28,condition1,,,,,,0.0-6.0-0.180,,,img2/tools/14.jpg,,270721,,732,image-keyboard-response,,
28,condition1,,,,,,0.0-6.0-1.180,,,+,,271026,,733,html-keyboard-response,,
28,condition1,,,,,,0.0-6.0-2.180,,,img2/tools/7.jpg,,271235,,734,image-keyboard-response,,
28,condition1,D,O,,,,0.0-6.0-3.180,d,420,"Press S if the two images were the same, Press D if the two images were different.",,271656,,735,html-keyboard-response,,
28,condition1,,,,,,0.0-6.0-0.181,,,img2/french/8.jpg,,271873,,736,image-keyboard-response,,
28,condition1,,,,,,0.0-6.0-1.181,,,+,,272181,,737,html-keyboard-response,,
28,condition1,,,,,,0.0-6.0-2.181,,,img2/french/8.jpg,,272391,,738,image-keyboard-response,,
28,condition1,S,R,,,,0.0-6.0-3.181,s,343,"Press S if the two images were the same, Press D if the two images were different.",,272736,,739,html-keyboard-response,,
28,condition1,,,,,,0.0-6.0-0.182,,,img2/Mtools/13.jpg,,272939,,740,image-keyboard-response,,
28,condition1,,,,,,0.0-6.0-1.182,,,+,,273252,,741,html-keyboard-response,,
28,condition1,,,,,,0.0-6.0-2.182,,,img2/Mtools/10.jpg,,273474,,742,image-keyboard-response,,
28,condition1,D,O,,,,0.0-6.0-3.182,d,420,"Press S if the two images were the same, Press D if the two images were different.",,273896,,743,html-keyboard-response,,
28,condition1,,,,,,0.0-6.0-0.183,,,img2/french/12.jpg,,274102,,744,image-keyboard-response,,
28,condition1,,,,,,0.0-6.0-1.183,,,+,,274405,,745,html-keyboard-response,,
28,condition1,,,,,,0.0-6.0-2.183,,,img2/french/12.jpg,,274619,,746,image-keyboard-response,,
28,condition1,S,R,,,,0.0-6.0-3.183,s,387,"Press S if the two images were the same, Press D if the two images were different.",,275007,,747,html-keyboard-response,,
28,condition1,,,,,,0.0-6.0-0.184,,,img2/Mfrench/14.jpg,,275223,,748,image-keyboard-response,,
28,condition1,,,,,,0.0-6.0-1.184,,,+,,275536,,749,html-keyboard-response,,
28,condition1,,,,,,0.0-6.0-2.184,,,img2/Mfrench/7.jpg,,275795,,750,image-keyboard-response,,
28,condition1,D,R,,,,0.0-6.0-3.184,d,405,"Press S if the two images were the same, Press D if the two images were different.",,276200,,751,html-keyboard-response,,
28,condition1,,,,,,0.0-6.0-0.185,,,img2/french/11.jpg,,276408,,752,image-keyboard-response,,
28,condition1,,,,,,0.0-6.0-1.185,,,+,,276723,,753,html-keyboard-response,,
28,condition1,,,,,,0.0-6.0-2.185,,,img2/Mfrench/11.jpg,,276969,,754,image-keyboard-response,,
28,condition1,S,R,,,,0.0-6.0-3.185,s,339,"Press S if the two images were the same, Press D if the two images were different.",,277309,,755,html-keyboard-response,,
28,condition1,,,,,,0.0-6.0-0.186,,,img2/Mfaces/8.jpg,,277520,,756,image-keyboard-response,,
28,condition1,,,,,,0.0-6.0-1.186,,,+,,277829,,757,html-keyboard-response,,
28,condition1,,,,,,0.0-6.0-2.186,,,img2/Mfaces/12.jpg,,278037,,758,image-keyboard-response,,
28,condition1,D,H,,,,0.0-6.0-3.186,d,455,"Press S if the two images were the same, Press D if the two images were different.",,278492,,759,html-keyboard-response,,
28,condition1,,,,,,0.0-6.0-0.187,,,img2/faces/9.jpg,,278696,,760,image-keyboard-response,,
28,condition1,,,,,,0.0-6.0-1.187,,,+,,279004,,761,html-keyboard-response,,
28,condition1,,,,,,0.0-6.0-2.187,,,img2/faces/9.jpg,,279208,,762,image-keyboard-response,,
28,condition1,S,H,,,,0.0-6.0-3.187,s,352,"Press S if the two images were the same, Press D if the two images were different.",,279561,,763,html-keyboard-response,,
28,condition1,,,,,,0.0-6.0-0.188,,,img2/french/1.jpg,,279762,,764,image-keyboard-response,,
28,condition1,,,,,,0.0-6.0-1.188,,,+,,280070,,765,html-keyboard-response,,
28,condition1,,,,,,0.0-6.0-2.188,,,img2/french/10.jpg,,280275,,766,image-keyboard-response,,
28,condition1,D,R,,,,0.0-6.0-3.188,d,445,"Press S if the two images were the same, Press D if the two images were different.",,280721,,767,html-keyboard-response,,
28,condition1,,,,,,0.0-6.0-0.189,,,img2/jap/1.jpg,,280963,,768,image-keyboard-response,,
28,condition1,,,,,,0.0-6.0-1.189,,,+,,281277,,769,html-keyboard-response,,
28,condition1,,,,,,0.0-6.0-2.189,,,img2/jap/1.jpg,,281484,,770,image-keyboard-response,,
28,condition1,S,J,,,,0.0-6.0-3.189,s,334,"Press S if the two images were the same, Press D if the two images were different.",,281821,,771,html-keyboard-response,,
28,condition1,,,,,,0.0-6.0-0.190,,,img2/french/3.jpg,,282030,,772,image-keyboard-response,,
28,condition1,,,,,,0.0-6.0-1.190,,,+,,282334,,773,html-keyboard-response,,
28,condition1,,,,,,0.0-6.0-2.190,,,img2/Mfrench/3.jpg,,282585,,774,image-keyboard-response,,
28,condition1,S,R,,,,0.0-6.0-3.190,s,306,"Press S if the two images were the same, Press D if the two images were different.",,282890,,775,html-keyboard-response,,
28,condition1,,,,,,0.0-6.0-0.191,,,img2/faces/11.jpg,,283093,,776,image-keyboard-response,,
28,condition1,,,,,,0.0-6.0-1.191,,,+,,283404,,777,html-keyboard-response,,
28,condition1,,,,,,0.0-6.0-2.191,,,img2/Mfaces/11.jpg,,283617,,778,image-keyboard-response,,
28,condition1,S,H,,,,0.0-6.0-3.191,s,446,"Press S if the two images were the same, Press D if the two images were different.",,284062,,779,html-keyboard-response,,
28,condition1,,,,,,0.0-6.0-0.192,,,img2/tools/2.jpg,,284268,,780,image-keyboard-response,,
28,condition1,,,,,,0.0-6.0-1.192,,,+,,284579,,781,html-keyboard-response,,
28,condition1,,,,,,0.0-6.0-2.192,,,img2/Mtools/2.jpg,,284795,,782,image-keyboard-response,,
28,condition1,S,O,,,,0.0-6.0-3.192,s,272,"Press S if the two images were the same, Press D if the two images were different.",,285068,,783,html-keyboard-response,,
28,condition1,,,,,,0.0-6.0-0.193,,,img2/french/12.jpg,,285279,,784,image-keyboard-response,,
28,condition1,,,,,,0.0-6.0-1.193,,,+,,285584,,785,html-keyboard-response,,
28,condition1,,,,,,0.0-6.0-2.193,,,img2/Mfrench/12.jpg,,285790,,786,image-keyboard-response,,
28,condition1,S,R,,,,0.0-6.0-3.193,s,323,"Press S if the two images were the same, Press D if the two images were different.",,286115,,787,html-keyboard-response,,
28,condition1,,,,,,0.0-6.0-0.194,,,img2/Mtools/12.jpg,,286323,,788,image-keyboard-response,,
28,condition1,,,,,,0.0-6.0-1.194,,,+,,286637,,789,html-keyboard-response,,
28,condition1,,,,,,0.0-6.0-2.194,,,img2/Mtools/3.jpg,,286846,,790,image-keyboard-response,,
28,condition1,D,O,,,,0.0-6.0-3.194,d,363,"Press S if the two images were the same, Press D if the two images were different.",,287210,,791,html-keyboard-response,,
28,condition1,,,,,,0.0-6.0-0.195,,,img2/Mfrench/11.jpg,,287415,,792,image-keyboard-response,,
28,condition1,,,,,,0.0-6.0-1.195,,,+,,287721,,793,html-keyboard-response,,
28,condition1,,,,,,0.0-6.0-2.195,,,img2/Mfrench/13.jpg,,287928,,794,image-keyboard-response,,
28,condition1,D,R,,,,0.0-6.0-3.195,d,564,"Press S if the two images were the same, Press D if the two images were different.",,288493,,795,html-keyboard-response,,
28,condition1,,,,,,0.0-6.0-0.196,,,img2/jap/13.jpg,,288747,,796,image-keyboard-response,,
28,condition1,,,,,,0.0-6.0-1.196,,,+,,289061,,797,html-keyboard-response,,
28,condition1,,,,,,0.0-6.0-2.196,,,img2/jap/13.jpg,,289270,,798,image-keyboard-response,,
28,condition1,S,J,,,,0.0-6.0-3.196,s,357,"Press S if the two images were the same, Press D if the two images were different.",,289628,,799,html-keyboard-response,,
28,condition1,,,,,,0.0-6.0-0.197,,,img2/french/2.jpg,,289871,,800,image-keyboard-response,,
28,condition1,,,,,,0.0-6.0-1.197,,,+,,290181,,801,html-keyboard-response,,
28,condition1,,,,,,0.0-6.0-2.197,,,img2/french/8.jpg,,290393,,802,image-keyboard-response,,
28,condition1,D,R,,,,0.0-6.0-3.197,d,402,"Press S if the two images were the same, Press D if the two images were different.",,290795,,803,html-keyboard-response,,
28,condition1,,,,,,0.0-6.0-0.198,,,img2/jap/9.jpg,,291038,,804,image-keyboard-response,,
28,condition1,,,,,,0.0-6.0-1.198,,,+,,291340,,805,html-keyboard-response,,
28,condition1,,,,,,0.0-6.0-2.198,,,img2/jap/9.jpg,,291550,,806,image-keyboard-response,,
28,condition1,S,J,,,,0.0-6.0-3.198,s,307,"Press S if the two images were the same, Press D if the two images were different.",,291858,,807,html-keyboard-response,,
28,condition1,,,,,,0.0-6.0-0.199,,,img2/tools/6.jpg,,292060,,808,image-keyboard-response,,
28,condition1,,,,,,0.0-6.0-1.199,,,+,,292363,,809,html-keyboard-response,,
28,condition1,,,,,,0.0-6.0-2.199,,,img2/tools/12.jpg,,292570,,810,image-keyboard-response,,
28,condition1,D,O,,,,0.0-6.0-3.199,d,393,"Press S if the two images were the same, Press D if the two images were different.",,292964,,811,html-keyboard-response,,
28,condition1,,,,,,0.0-6.0-0.200,,,img2/faces/12.jpg,,293184,,812,image-keyboard-response,,
28,condition1,,,,,,0.0-6.0-1.200,,,+,,293500,,813,html-keyboard-response,,
28,condition1,,,,,,0.0-6.0-2.200,,,img2/faces/3.jpg,,293703,,814,image-keyboard-response,,
28,condition1,D,H,,,,0.0-6.0-3.200,d,604,"Press S if the two images were the same, Press D if the two images were different.",,294308,,815,html-keyboard-response,,
28,condition1,,,,,,0.0-6.0-0.201,,,img2/false/1.jpg,,294544,,816,image-keyboard-response,,
28,condition1,,,,,,0.0-6.0-1.201,,,+,,294847,,817,html-keyboard-response,,
28,condition1,,,,,,0.0-6.0-2.201,,,img2/false/1.jpg,,295054,,818,image-keyboard-response,,
28,condition1,S,M,,,,0.0-6.0-3.201,s,374,"Press S if the two images were the same, Press D if the two images were different.",,295429,,819,html-keyboard-response,,
28,condition1,,,,,,0.0-6.0-0.202,,,img2/tools/1.jpg,,295648,,820,image-keyboard-response,,
28,condition1,,,,,,0.0-6.0-1.202,,,+,,295955,,821,html-keyboard-response,,
28,condition1,,,,,,0.0-6.0-2.202,,,img2/Mtools/1.jpg,,296173,,822,image-keyboard-response,,
28,condition1,S,O,,,,0.0-6.0-3.202,s,399,"Press S if the two images were the same, Press D if the two images were different.",,296574,,823,html-keyboard-response,,
28,condition1,,,,,,0.0-6.0-0.203,,,img2/Mfalse/8.jpg,,296777,,824,image-keyboard-response,,
28,condition1,,,,,,0.0-6.0-1.203,,,+,,297088,,825,html-keyboard-response,,
28,condition1,,,,,,0.0-6.0-2.203,,,img2/Mfalse/12.jpg,,297328,,826,image-keyboard-response,,
28,condition1,D,M,,,,0.0-6.0-3.203,d,357,"Press S if the two images were the same, Press D if the two images were different.",,297685,,827,html-keyboard-response,,
28,condition1,,,,,,0.0-6.0-0.204,,,img2/false/11.jpg,,297911,,828,image-keyboard-response,,
28,condition1,,,,,,0.0-6.0-1.204,,,+,,298215,,829,html-keyboard-response,,
28,condition1,,,,,,0.0-6.0-2.204,,,img2/false/11.jpg,,298422,,830,image-keyboard-response,,
28,condition1,S,M,,,,0.0-6.0-3.204,s,402,"Press S if the two images were the same, Press D if the two images were different.",,298826,,831,html-keyboard-response,,
28,condition1,,,,,,0.0-6.0-0.205,,,img2/french/6.jpg,,299079,,832,image-keyboard-response,,
28,condition1,,,,,,0.0-6.0-1.205,,,+,,299381,,833,html-keyboard-response,,
28,condition1,,,,,,0.0-6.0-2.205,,,img2/french/6.jpg,,299586,,834,image-keyboard-response,,
28,condition1,S,R,,,,0.0-6.0-3.205,s,376,"Press S if the two images were the same, Press D if the two images were different.",,299964,,835,html-keyboard-response,,
28,condition1,,,,,,0.0-6.0-0.206,,,img2/faces/2.jpg,,300189,,836,image-keyboard-response,,
28,condition1,,,,,,0.0-6.0-1.206,,,+,,300497,,837,html-keyboard-response,,
28,condition1,,,,,,0.0-6.0-2.206,,,img2/faces/8.jpg,,300713,,838,image-keyboard-response,,
28,condition1,D,H,,,,0.0-6.0-3.206,d,407,"Press S if the two images were the same, Press D if the two images were different.",,301121,,839,html-keyboard-response,,
28,condition1,,,,,,0.0-6.0-0.207,,,img2/tools/12.jpg,,301329,,840,image-keyboard-response,,
28,condition1,,,,,,0.0-6.0-1.207,,,+,,301632,,841,html-keyboard-response,,
28,condition1,,,,,,0.0-6.0-2.207,,,img2/Mtools/12.jpg,,301843,,842,image-keyboard-response,,
28,condition1,S,O,,,,0.0-6.0-3.207,s,453,"Press S if the two images were the same, Press D if the two images were different.",,302296,,843,html-keyboard-response,,
28,condition1,,,,,,0.0-6.0-0.208,,,img2/tools/13.jpg,,302517,,844,image-keyboard-response,,
28,condition1,,,,,,0.0-6.0-1.208,,,+,,302822,,845,html-keyboard-response,,
28,condition1,,,,,,0.0-6.0-2.208,,,img2/Mtools/13.jpg,,303030,,846,image-keyboard-response,,
28,condition1,S,O,,,,0.0-6.0-3.208,s,836,"Press S if the two images were the same, Press D if the two images were different.",,303868,,847,html-keyboard-response,,
28,condition1,,,,,,0.0-6.0-0.209,,,img2/Mfrench/7.jpg,,304081,,848,image-keyboard-response,,
28,condition1,,,,,,0.0-6.0-1.209,,,+,,304381,,849,html-keyboard-response,,
28,condition1,,,,,,0.0-6.0-2.209,,,img2/Mfrench/6.jpg,,304626,,850,image-keyboard-response,,
28,condition1,D,R,,,,0.0-6.0-3.209,d,485,"Press S if the two images were the same, Press D if the two images were different.",,305112,,851,html-keyboard-response,,
28,condition1,,,,,,0.0-6.0-0.210,,,img2/Mfrench/6.jpg,,305325,,852,image-keyboard-response,,
28,condition1,,,,,,0.0-6.0-1.210,,,+,,305639,,853,html-keyboard-response,,
28,condition1,,,,,,0.0-6.0-2.210,,,img2/Mfrench/12.jpg,,305848,,854,image-keyboard-response,,
28,condition1,D,R,,,,0.0-6.0-3.210,d,543,"Press S if the two images were the same, Press D if the two images were different.",,306393,,855,html-keyboard-response,,
28,condition1,,,,,,0.0-6.0-0.211,,,img2/false/2.jpg,,306607,,856,image-keyboard-response,,
28,condition1,,,,,,0.0-6.0-1.211,,,+,,306911,,857,html-keyboard-response,,
28,condition1,,,,,,0.0-6.0-2.211,,,img2/false/8.jpg,,307153,,858,image-keyboard-response,,
28,condition1,D,M,,,,0.0-6.0-3.211,d,739,"Press S if the two images were the same, Press D if the two images were different.",,307893,,859,html-keyboard-response,,
28,condition1,,,,,,0.0-6.0-0.212,,,img2/french/9.jpg,,308103,,860,image-keyboard-response,,
28,condition1,,,,,,0.0-6.0-1.212,,,+,,308415,,861,html-keyboard-response,,
28,condition1,,,,,,0.0-6.0-2.212,,,img2/french/9.jpg,,308623,,862,image-keyboard-response,,
28,condition1,S,R,,,,0.0-6.0-3.212,s,310,"Press S if the two images were the same, Press D if the two images were different.",,308935,,863,html-keyboard-response,,
28,condition1,,,,,,0.0-6.0-0.213,,,img2/french/13.jpg,,309166,,864,image-keyboard-response,,
28,condition1,,,,,,0.0-6.0-1.213,,,+,,309468,,865,html-keyboard-response,,
28,condition1,,,,,,0.0-6.0-2.213,,,img2/Mfrench/13.jpg,,309679,,866,image-keyboard-response,,
28,condition1,S,R,,,,0.0-6.0-3.213,s,411,"Press S if the two images were the same, Press D if the two images were different.",,310092,,867,html-keyboard-response,,
28,condition1,,,,,,0.0-6.0-0.214,,,img2/tools/8.jpg,,310304,,868,image-keyboard-response,,
28,condition1,,,,,,0.0-6.0-1.214,,,+,,310615,,869,html-keyboard-response,,
28,condition1,,,,,,0.0-6.0-2.214,,,img2/tools/8.jpg,,310825,,870,image-keyboard-response,,
28,condition1,S,O,,,,0.0-6.0-3.214,s,502,"Press S if the two images were the same, Press D if the two images were different.",,311328,,871,html-keyboard-response,,
28,condition1,,,,,,0.0-6.0-0.215,,,img2/french/13.jpg,,311541,,872,image-keyboard-response,,
28,condition1,,,,,,0.0-6.0-1.215,,,+,,311852,,873,html-keyboard-response,,
28,condition1,,,,,,0.0-6.0-2.215,,,img2/french/13.jpg,,312067,,874,image-keyboard-response,,
28,condition1,S,R,,,,0.0-6.0-3.215,s,411,"Press S if the two images were the same, Press D if the two images were different.",,312478,,875,html-keyboard-response,,
28,condition1,,,,,,0.0-6.0-0.216,,,img2/jap/6.jpg,,312719,,876,image-keyboard-response,,
28,condition1,,,,,,0.0-6.0-1.216,,,+,,313032,,877,html-keyboard-response,,
28,condition1,,,,,,0.0-6.0-2.216,,,img2/jap/12.jpg,,313268,,878,image-keyboard-response,,
28,condition1,D,J,,,,0.0-6.0-3.216,d,423,"Press S if the two images were the same, Press D if the two images were different.",,313693,,879,html-keyboard-response,,
28,condition1,,,,,,0.0-6.0-0.217,,,img2/tools/10.jpg,,313907,,880,image-keyboard-response,,
28,condition1,,,,,,0.0-6.0-1.217,,,+,,314217,,881,html-keyboard-response,,
28,condition1,,,,,,0.0-6.0-2.217,,,img2/tools/10.jpg,,314424,,882,image-keyboard-response,,
28,condition1,S,O,,,,0.0-6.0-3.217,s,262,"Press S if the two images were the same, Press D if the two images were different.",,314686,,883,html-keyboard-response,,
28,condition1,,,,,,0.0-6.0-0.218,,,img2/Mjap/10.jpg,,314937,,884,image-keyboard-response,,
28,condition1,,,,,,0.0-6.0-1.218,,,+,,315238,,885,html-keyboard-response,,
28,condition1,,,,,,0.0-6.0-2.218,,,img2/Mjap/5.jpg,,315492,,886,image-keyboard-response,,
28,condition1,D,J,,,,0.0-6.0-3.218,d,350,"Press S if the two images were the same, Press D if the two images were different.",,315843,,887,html-keyboard-response,,
28,condition1,,,,,,0.0-6.0-0.219,,,img2/Mfrench/3.jpg,,316056,,888,image-keyboard-response,,
28,condition1,,,,,,0.0-6.0-1.219,,,+,,316371,,889,html-keyboard-response,,
28,condition1,,,,,,0.0-6.0-2.219,,,img2/Mfrench/2.jpg,,316624,,890,image-keyboard-response,,
28,condition1,D,R,,,,0.0-6.0-3.219,d,372,"Press S if the two images were the same, Press D if the two images were different.",,316997,,891,html-keyboard-response,,
28,condition1,,,,,,0.0-6.0-0.220,,,img2/faces/12.jpg,,317206,,892,image-keyboard-response,,
28,condition1,,,,,,0.0-6.0-1.220,,,+,,317509,,893,html-keyboard-response,,
28,condition1,,,,,,0.0-6.0-2.220,,,img2/faces/12.jpg,,317720,,894,image-keyboard-response,,
28,condition1,S,H,,,,0.0-6.0-3.220,s,361,"Press S if the two images were the same, Press D if the two images were different.",,318081,,895,html-keyboard-response,,
28,condition1,,,,,,0.0-6.0-0.221,,,img2/french/14.jpg,,318311,,896,image-keyboard-response,,
28,condition1,,,,,,0.0-6.0-1.221,,,+,,318624,,897,html-keyboard-response,,
28,condition1,,,,,,0.0-6.0-2.221,,,img2/french/14.jpg,,318836,,898,image-keyboard-response,,
28,condition1,S,R,,,,0.0-6.0-3.221,s,660,"Press S if the two images were the same, Press D if the two images were different.",,319499,,899,html-keyboard-response,,
28,condition1,,,,,,0.0-6.0-0.222,,,img2/faces/12.jpg,,319703,,900,image-keyboard-response,,
28,condition1,,,,,,0.0-6.0-1.222,,,+,,320005,,901,html-keyboard-response,,
28,condition1,,,,,,0.0-6.0-2.222,,,img2/Mfaces/12.jpg,,320213,,902,image-keyboard-response,,
28,condition1,S,H,,,,0.0-6.0-3.222,s,374,"Press S if the two images were the same, Press D if the two images were different.",,320589,,903,html-keyboard-response,,
28,condition1,,,,,,0.0-6.0-0.223,,,img2/faces/5.jpg,,320831,,904,image-keyboard-response,,
28,condition1,,,,,,0.0-6.0-1.223,,,+,,321139,,905,html-keyboard-response,,
28,condition1,,,,,,0.0-6.0-2.223,,,img2/faces/5.jpg,,321354,,906,image-keyboard-response,,
28,condition1,S,H,,,,0.0-6.0-3.223,s,430,"Press S if the two images were the same, Press D if the two images were different.",,321785,,907,html-keyboard-response,,
28,condition1,,,,,,0.0-6.0-0.224,,,img2/faces/7.jpg,,322004,,908,image-keyboard-response,,
28,condition1,,,,,,0.0-6.0-1.224,,,+,,322315,,909,html-keyboard-response,,
28,condition1,,,,,,0.0-6.0-2.224,,,img2/Mfaces/7.jpg,,322517,,910,image-keyboard-response,,
28,condition1,S,H,,,,0.0-6.0-3.224,s,349,"Press S if the two images were the same, Press D if the two images were different.",,322867,,911,html-keyboard-response,,
28,condition1,,,,,,0.0-6.0-0.225,,,img2/Mjap/13.jpg,,323100,,912,image-keyboard-response,,
28,condition1,,,,,,0.0-6.0-1.225,,,+,,323404,,913,html-keyboard-response,,
28,condition1,,,,,,0.0-6.0-2.225,,,img2/Mjap/10.jpg,,323620,,914,image-keyboard-response,,
28,condition1,D,J,,,,0.0-6.0-3.225,d,435,"Press S if the two images were the same, Press D if the two images were different.",,324056,,915,html-keyboard-response,,
28,condition1,,,,,,0.0-6.0-0.226,,,img2/Mtools/6.jpg,,324267,,916,image-keyboard-response,,
28,condition1,,,,,,0.0-6.0-1.226,,,+,,324581,,917,html-keyboard-response,,
28,condition1,,,,,,0.0-6.0-2.226,,,img2/Mtools/12.jpg,,324784,,918,image-keyboard-response,,
28,condition1,D,O,,,,0.0-6.0-3.226,d,597,"Press S if the two images were the same, Press D if the two images were different.",,325383,,919,html-keyboard-response,,
28,condition1,,,,,,0.0-6.0-0.227,,,img2/false/10.jpg,,325593,,920,image-keyboard-response,,
28,condition1,,,,,,0.0-6.0-1.227,,,+,,325906,,921,html-keyboard-response,,
28,condition1,,,,,,0.0-6.0-2.227,,,img2/false/5.jpg,,326152,,922,image-keyboard-response,,
28,condition1,D,M,,,,0.0-6.0-3.227,d,504,"Press S if the two images were the same, Press D if the two images were different.",,326656,,923,html-keyboard-response,,
28,condition1,,,,,,0.0-6.0-0.228,,,img2/jap/5.jpg,,326877,,924,image-keyboard-response,,
28,condition1,,,,,,0.0-6.0-1.228,,,+,,327184,,925,html-keyboard-response,,
28,condition1,,,,,,0.0-6.0-2.228,,,img2/Mjap/5.jpg,,327390,,926,image-keyboard-response,,
28,condition1,S,J,,,,0.0-6.0-3.228,s,426,"Press S if the two images were the same, Press D if the two images were different.",,327816,,927,html-keyboard-response,,
28,condition1,,,,,,0.0-6.0-0.229,,,img2/jap/3.jpg,,328019,,928,image-keyboard-response,,
28,condition1,,,,,,0.0-6.0-1.229,,,+,,328326,,929,html-keyboard-response,,
28,condition1,,,,,,0.0-6.0-2.229,,,img2/Mjap/3.jpg,,328584,,930,image-keyboard-response,,
28,condition1,S,J,,,,0.0-6.0-3.229,s,460,"Press S if the two images were the same, Press D if the two images were different.",,329046,,931,html-keyboard-response,,
28,condition1,,,,,,0.0-6.0-0.230,,,img2/false/6.jpg,,329295,,932,image-keyboard-response,,
28,condition1,,,,,,0.0-6.0-1.230,,,+,,329602,,933,html-keyboard-response,,
28,condition1,,,,,,0.0-6.0-2.230,,,img2/false/6.jpg,,329816,,934,image-keyboard-response,,
28,condition1,S,M,,,,0.0-6.0-3.230,s,348,"Press S if the two images were the same, Press D if the two images were different.",,330166,,935,html-keyboard-response,,
28,condition1,,,,,,0.0-6.0-0.231,,,img2/Mfrench/5.jpg,,330369,,936,image-keyboard-response,,
28,condition1,,,,,,0.0-6.0-1.231,,,+,,330677,,937,html-keyboard-response,,
28,condition1,,,,,,0.0-6.0-2.231,,,img2/Mfrench/6.jpg,,330891,,938,image-keyboard-response,,
28,condition1,D,R,,,,0.0-6.0-3.231,d,451,"Press S if the two images were the same, Press D if the two images were different.",,331343,,939,html-keyboard-response,,
28,condition1,,,,,,0.0-6.0-0.232,,,img2/french/7.jpg,,331556,,940,image-keyboard-response,,
28,condition1,,,,,,0.0-6.0-1.232,,,+,,331860,,941,html-keyboard-response,,
28,condition1,,,,,,0.0-6.0-2.232,,,img2/Mfrench/7.jpg,,332070,,942,image-keyboard-response,,
