"";"workerid";"proliferate.condition";"X0";"X1";"failed_audio";"failed_images";"failed_video";"internal_node_id";"response";"rt";"sequence_id";"same_mirror_normal";"stimulus";"success";"time_elapsed";"timeout";"trial_index";"trial_type";"view_history";"error"
"1";18;"condition1";"";"";"[]";"[]";"[]";"0.0-0.0";"";"";"0";"";"";"True";1298;"False";0;"preload";"";""
"2";18;"condition1";"";"";"";"";"";"0.0-1.0";"";"35605";"1";"";"";"";36904;"";1;"instructions";"[{'page_index': 0, 'viewing_time': 4204}, {'page_index': 1, 'viewing_time': 10283}, {'page_index': 2, 'viewing_time': 17992}, {'page_index': 3, 'viewing_time': 3126}]";""
"3";18;"condition1";"";"";"";"";"";"0.0-2.0-0.0";"";"";"0";"";"img2/tools/2.jpg";"";37115;"";2;"image-keyboard-response";"";""
"4";18;"condition1";"";"";"";"";"";"0.0-2.0-1.0";"";"";"1";"";"+";"";37418;"";3;"html-keyboard-response";"";""
"5";18;"condition1";"";"";"";"";"";"0.0-2.0-2.0";"";"";"2";"";"img2/Mtools/2.jpg";"";37634;"";4;"image-keyboard-response";"";""
"6";18;"condition1";"";"";"";"";"";"0.0-2.0-3.0";"s";"2148";"3";"M";"Press S if the two images were the same, Press D if the two images were different.";"";39783;"";5;"html-keyboard-response";"";""
"7";18;"condition1";"";"";"";"";"";"0.0-3.0";"";"4214";"3";"";"";"";43997;"";6;"instructions";"[{'page_index': 0, 'viewing_time': 4214}]";""
"8";18;"condition1";"";"";"";"";"";"0.0-4.0-0.0";"";"";"0";"";"img2/jap/2.jpg";"";44217;"";7;"image-keyboard-response";"";""
"9";18;"condition1";"";"";"";"";"";"0.0-4.0-1.0";"";"";"1";"";"+";"";44526;"";8;"html-keyboard-response";"";""
"10";18;"condition1";"";"";"";"";"";"0.0-4.0-2.0";"";"";"2";"";"img2/jap/3.jpg";"";44741;"";9;"image-keyboard-response";"";""
"11";18;"condition1";"";"";"";"";"";"0.0-4.0-3.0";"d";"2511";"3";"T";"Press S if the two images were the same, Press D if the two images were different.";"";47253;"";10;"html-keyboard-response";"";""
"12";18;"condition1";"";"";"";"";"";"0.0-5.0";"";"2039";"5";"";"";"";49293;"";11;"instructions";"[{'page_index': 0, 'viewing_time': 2039}]";""
"13";18;"condition1";"";"";"";"";"";"0.0-6.0-0.0";"";"";"0";"";"img2/Mfalse/12.jpg";"";49500;"";12;"image-keyboard-response";"";""
"14";18;"condition1";"";"";"";"";"";"0.0-6.0-1.0";"";"";"1";"";"+";"";49810;"";13;"html-keyboard-response";"";""
"15";18;"condition1";"";"";"";"";"";"0.0-6.0-2.0";"";"";"2";"";"img2/Mfalse/8.jpg";"";50025;"";14;"image-keyboard-response";"";""
"16";18;"condition1";"D";"M";"";"";"";"0.0-6.0-3.0";"d";"581";"3";"M";"Press S if the two images were the same, Press D if the two images were different.";"";50606;"";15;"html-keyboard-response";"";""
"17";18;"condition1";"";"";"";"";"";"0.0-6.0-0.1";"";"";"0";"";"img2/jap/6.jpg";"";50822;"";16;"image-keyboard-response";"";""
"18";18;"condition1";"";"";"";"";"";"0.0-6.0-1.1";"";"";"1";"";"+";"";51130;"";17;"html-keyboard-response";"";""
"19";18;"condition1";"";"";"";"";"";"0.0-6.0-2.1";"";"";"2";"";"img2/jap/6.jpg";"";51344;"";18;"image-keyboard-response";"";""
"20";18;"condition1";"S";"J";"";"";"";"0.0-6.0-3.1";"d";"901";"3";"T";"Press S if the two images were the same, Press D if the two images were different.";"";52246;"";19;"html-keyboard-response";"";""
"21";18;"condition1";"";"";"";"";"";"0.0-6.0-0.2";"";"";"0";"";"img2/Mfalse/7.jpg";"";52465;"";20;"image-keyboard-response";"";""
"22";18;"condition1";"";"";"";"";"";"0.0-6.0-1.2";"";"";"1";"";"+";"";52772;"";21;"html-keyboard-response";"";""
"23";18;"condition1";"";"";"";"";"";"0.0-6.0-2.2";"";"";"2";"";"img2/Mfalse/13.jpg";"";52987;"";22;"image-keyboard-response";"";""
"24";18;"condition1";"D";"M";"";"";"";"0.0-6.0-3.2";"d";"578";"3";"M";"Press S if the two images were the same, Press D if the two images were different.";"";53566;"";23;"html-keyboard-response";"";""
"25";18;"condition1";"";"";"";"";"";"0.0-6.0-0.3";"";"";"0";"";"img2/tools/13.jpg";"";53775;"";24;"image-keyboard-response";"";""
"26";18;"condition1";"";"";"";"";"";"0.0-6.0-1.3";"";"";"1";"";"+";"";54084;"";25;"html-keyboard-response";"";""
"27";18;"condition1";"";"";"";"";"";"0.0-6.0-2.3";"";"";"2";"";"img2/Mtools/13.jpg";"";54300;"";26;"image-keyboard-response";"";""
"28";18;"condition1";"S";"O";"";"";"";"0.0-6.0-3.3";"d";"554";"3";"M";"Press S if the two images were the same, Press D if the two images were different.";"";54854;"";27;"html-keyboard-response";"";""
"29";18;"condition1";"";"";"";"";"";"0.0-6.0-0.4";"";"";"0";"";"img2/faces/13.jpg";"";55064;"";28;"image-keyboard-response";"";""
"30";18;"condition1";"";"";"";"";"";"0.0-6.0-1.4";"";"";"1";"";"+";"";55386;"";29;"html-keyboard-response";"";""
"31";18;"condition1";"";"";"";"";"";"0.0-6.0-2.4";"";"";"2";"";"img2/faces/11.jpg";"";55602;"";30;"image-keyboard-response";"";""
"32";18;"condition1";"D";"H";"";"";"";"0.0-6.0-3.4";"d";"420";"3";"T";"Press S if the two images were the same, Press D if the two images were different.";"";56022;"";31;"html-keyboard-response";"";""
"33";18;"condition1";"";"";"";"";"";"0.0-6.0-0.5";"";"";"0";"";"img2/jap/8.jpg";"";56235;"";32;"image-keyboard-response";"";""
"34";18;"condition1";"";"";"";"";"";"0.0-6.0-1.5";"";"";"1";"";"+";"";56544;"";33;"html-keyboard-response";"";""
"35";18;"condition1";"";"";"";"";"";"0.0-6.0-2.5";"";"";"2";"";"img2/jap/9.jpg";"";56761;"";34;"image-keyboard-response";"";""
"36";18;"condition1";"D";"J";"";"";"";"0.0-6.0-3.5";"d";"494";"3";"T";"Press S if the two images were the same, Press D if the two images were different.";"";57256;"";35;"html-keyboard-response";"";""
"37";18;"condition1";"";"";"";"";"";"0.0-6.0-0.6";"";"";"0";"";"img2/french/3.jpg";"";57467;"";36;"image-keyboard-response";"";""
"38";18;"condition1";"";"";"";"";"";"0.0-6.0-1.6";"";"";"1";"";"+";"";57775;"";37;"html-keyboard-response";"";""
"39";18;"condition1";"";"";"";"";"";"0.0-6.0-2.6";"";"";"2";"";"img2/french/13.jpg";"";57992;"";38;"image-keyboard-response";"";""
"40";18;"condition1";"D";"R";"";"";"";"0.0-6.0-3.6";"d";"469";"3";"T";"Press S if the two images were the same, Press D if the two images were different.";"";58461;"";39;"html-keyboard-response";"";""
"41";18;"condition1";"";"";"";"";"";"0.0-6.0-0.7";"";"";"0";"";"img2/jap/1.jpg";"";58671;"";40;"image-keyboard-response";"";""
"42";18;"condition1";"";"";"";"";"";"0.0-6.0-1.7";"";"";"1";"";"+";"";58995;"";41;"html-keyboard-response";"";""
"43";18;"condition1";"";"";"";"";"";"0.0-6.0-2.7";"";"";"2";"";"img2/jap/7.jpg";"";59211;"";42;"image-keyboard-response";"";""
"44";18;"condition1";"D";"J";"";"";"";"0.0-6.0-3.7";"d";"602";"3";"T";"Press S if the two images were the same, Press D if the two images were different.";"";59813;"";43;"html-keyboard-response";"";""
"45";18;"condition1";"";"";"";"";"";"0.0-6.0-0.8";"";"";"0";"";"img2/jap/10.jpg";"";60026;"";44;"image-keyboard-response";"";""
"46";18;"condition1";"";"";"";"";"";"0.0-6.0-1.8";"";"";"1";"";"+";"";60333;"";45;"html-keyboard-response";"";""
"47";18;"condition1";"";"";"";"";"";"0.0-6.0-2.8";"";"";"2";"";"img2/jap/10.jpg";"";60547;"";46;"image-keyboard-response";"";""
"48";18;"condition1";"S";"J";"";"";"";"0.0-6.0-3.8";"s";"379";"3";"T";"Press S if the two images were the same, Press D if the two images were different.";"";60926;"";47;"html-keyboard-response";"";""
"49";18;"condition1";"";"";"";"";"";"0.0-6.0-0.9";"";"";"0";"";"img2/Mfalse/8.jpg";"";61147;"";48;"image-keyboard-response";"";""
"50";18;"condition1";"";"";"";"";"";"0.0-6.0-1.9";"";"";"1";"";"+";"";61454;"";49;"html-keyboard-response";"";""
"51";18;"condition1";"";"";"";"";"";"0.0-6.0-2.9";"";"";"2";"";"img2/Mfalse/9.jpg";"";61669;"";50;"image-keyboard-response";"";""
"52";18;"condition1";"D";"M";"";"";"";"0.0-6.0-3.9";"d";"435";"3";"M";"Press S if the two images were the same, Press D if the two images were different.";"";62105;"";51;"html-keyboard-response";"";""
"53";18;"condition1";"";"";"";"";"";"0.0-6.0-0.10";"";"";"0";"";"img2/tools/10.jpg";"";62314;"";52;"image-keyboard-response";"";""
"54";18;"condition1";"";"";"";"";"";"0.0-6.0-1.10";"";"";"1";"";"+";"";62623;"";53;"html-keyboard-response";"";""
"55";18;"condition1";"";"";"";"";"";"0.0-6.0-2.10";"";"";"2";"";"img2/Mtools/10.jpg";"";62837;"";54;"image-keyboard-response";"";""
"56";18;"condition1";"S";"O";"";"";"";"0.0-6.0-3.10";"d";"328";"3";"M";"Press S if the two images were the same, Press D if the two images were different.";"";63166;"";55;"html-keyboard-response";"";""
"57";18;"condition1";"";"";"";"";"";"0.0-6.0-0.11";"";"";"0";"";"img2/Mjap/7.jpg";"";63387;"";56;"image-keyboard-response";"";""
"58";18;"condition1";"";"";"";"";"";"0.0-6.0-1.11";"";"";"1";"";"+";"";63695;"";57;"html-keyboard-response";"";""
"59";18;"condition1";"";"";"";"";"";"0.0-6.0-2.11";"";"";"2";"";"img2/Mjap/13.jpg";"";63911;"";58;"image-keyboard-response";"";""
"60";18;"condition1";"D";"J";"";"";"";"0.0-6.0-3.11";"d";"647";"3";"M";"Press S if the two images were the same, Press D if the two images were different.";"";64558;"";59;"html-keyboard-response";"";""
"61";18;"condition1";"";"";"";"";"";"0.0-6.0-0.12";"";"";"0";"";"img2/false/1.jpg";"";64767;"";60;"image-keyboard-response";"";""
"62";18;"condition1";"";"";"";"";"";"0.0-6.0-1.12";"";"";"1";"";"+";"";65074;"";61;"html-keyboard-response";"";""
"63";18;"condition1";"";"";"";"";"";"0.0-6.0-2.12";"";"";"2";"";"img2/Mfalse/1.jpg";"";65290;"";62;"image-keyboard-response";"";""
"64";18;"condition1";"S";"M";"";"";"";"0.0-6.0-3.12";"s";"1005";"3";"M";"Press S if the two images were the same, Press D if the two images were different.";"";66296;"";63;"html-keyboard-response";"";""
"65";18;"condition1";"";"";"";"";"";"0.0-6.0-0.13";"";"";"0";"";"img2/Mfaces/2.jpg";"";66509;"";64;"image-keyboard-response";"";""
"66";18;"condition1";"";"";"";"";"";"0.0-6.0-1.13";"";"";"1";"";"+";"";66820;"";65;"html-keyboard-response";"";""
"67";18;"condition1";"";"";"";"";"";"0.0-6.0-2.13";"";"";"2";"";"img2/Mfaces/9.jpg";"";67035;"";66;"image-keyboard-response";"";""
"68";18;"condition1";"D";"H";"";"";"";"0.0-6.0-3.13";"d";"346";"3";"M";"Press S if the two images were the same, Press D if the two images were different.";"";67381;"";67;"html-keyboard-response";"";""
"69";18;"condition1";"";"";"";"";"";"0.0-6.0-0.14";"";"";"0";"";"img2/tools/3.jpg";"";67601;"";68;"image-keyboard-response";"";""
"70";18;"condition1";"";"";"";"";"";"0.0-6.0-1.14";"";"";"1";"";"+";"";67911;"";69;"html-keyboard-response";"";""
"71";18;"condition1";"";"";"";"";"";"0.0-6.0-2.14";"";"";"2";"";"img2/Mtools/3.jpg";"";68125;"";70;"image-keyboard-response";"";""
"72";18;"condition1";"S";"O";"";"";"";"0.0-6.0-3.14";"d";"615";"3";"M";"Press S if the two images were the same, Press D if the two images were different.";"";68741;"";71;"html-keyboard-response";"";""
"73";18;"condition1";"";"";"";"";"";"0.0-6.0-0.15";"";"";"0";"";"img2/false/8.jpg";"";68951;"";72;"image-keyboard-response";"";""
"74";18;"condition1";"";"";"";"";"";"0.0-6.0-1.15";"";"";"1";"";"+";"";69261;"";73;"html-keyboard-response";"";""
"75";18;"condition1";"";"";"";"";"";"0.0-6.0-2.15";"";"";"2";"";"img2/false/9.jpg";"";69476;"";74;"image-keyboard-response";"";""
"76";18;"condition1";"D";"M";"";"";"";"0.0-6.0-3.15";"d";"778";"3";"T";"Press S if the two images were the same, Press D if the two images were different.";"";70254;"";75;"html-keyboard-response";"";""
"77";18;"condition1";"";"";"";"";"";"0.0-6.0-0.16";"";"";"0";"";"img2/false/4.jpg";"";70472;"";76;"image-keyboard-response";"";""
"78";18;"condition1";"";"";"";"";"";"0.0-6.0-1.16";"";"";"1";"";"+";"";70793;"";77;"html-keyboard-response";"";""
"79";18;"condition1";"";"";"";"";"";"0.0-6.0-2.16";"";"";"2";"";"img2/false/4.jpg";"";71009;"";78;"image-keyboard-response";"";""
"80";18;"condition1";"S";"M";"";"";"";"0.0-6.0-3.16";"s";"676";"3";"T";"Press S if the two images were the same, Press D if the two images were different.";"";71685;"";79;"html-keyboard-response";"";""
"81";18;"condition1";"";"";"";"";"";"0.0-6.0-0.17";"";"";"0";"";"img2/french/13.jpg";"";71901;"";80;"image-keyboard-response";"";""
"82";18;"condition1";"";"";"";"";"";"0.0-6.0-1.17";"";"";"1";"";"+";"";72208;"";81;"html-keyboard-response";"";""
"83";18;"condition1";"";"";"";"";"";"0.0-6.0-2.17";"";"";"2";"";"img2/Mfrench/13.jpg";"";72421;"";82;"image-keyboard-response";"";""
"84";18;"condition1";"S";"R";"";"";"";"0.0-6.0-3.17";"d";"625";"3";"M";"Press S if the two images were the same, Press D if the two images were different.";"";73046;"";83;"html-keyboard-response";"";""
"85";18;"condition1";"";"";"";"";"";"0.0-6.0-0.18";"";"";"0";"";"img2/tools/5.jpg";"";73258;"";84;"image-keyboard-response";"";""
"86";18;"condition1";"";"";"";"";"";"0.0-6.0-1.18";"";"";"1";"";"+";"";73569;"";85;"html-keyboard-response";"";""
"87";18;"condition1";"";"";"";"";"";"0.0-6.0-2.18";"";"";"2";"";"img2/tools/5.jpg";"";73782;"";86;"image-keyboard-response";"";""
"88";18;"condition1";"S";"O";"";"";"";"0.0-6.0-3.18";"s";"449";"3";"T";"Press S if the two images were the same, Press D if the two images were different.";"";74232;"";87;"html-keyboard-response";"";""
"89";18;"condition1";"";"";"";"";"";"0.0-6.0-0.19";"";"";"0";"";"img2/faces/5.jpg";"";74448;"";88;"image-keyboard-response";"";""
"90";18;"condition1";"";"";"";"";"";"0.0-6.0-1.19";"";"";"1";"";"+";"";74757;"";89;"html-keyboard-response";"";""
"91";18;"condition1";"";"";"";"";"";"0.0-6.0-2.19";"";"";"2";"";"img2/faces/5.jpg";"";74973;"";90;"image-keyboard-response";"";""
"92";18;"condition1";"S";"H";"";"";"";"0.0-6.0-3.19";"s";"376";"3";"T";"Press S if the two images were the same, Press D if the two images were different.";"";75350;"";91;"html-keyboard-response";"";""
"93";18;"condition1";"";"";"";"";"";"0.0-6.0-0.20";"";"";"0";"";"img2/Mjap/4.jpg";"";75559;"";92;"image-keyboard-response";"";""
"94";18;"condition1";"";"";"";"";"";"0.0-6.0-1.20";"";"";"1";"";"+";"";75870;"";93;"html-keyboard-response";"";""
"95";18;"condition1";"";"";"";"";"";"0.0-6.0-2.20";"";"";"2";"";"img2/Mjap/12.jpg";"";76083;"";94;"image-keyboard-response";"";""
"96";18;"condition1";"D";"J";"";"";"";"0.0-6.0-3.20";"d";"437";"3";"M";"Press S if the two images were the same, Press D if the two images were different.";"";76520;"";95;"html-keyboard-response";"";""
"97";18;"condition1";"";"";"";"";"";"0.0-6.0-0.21";"";"";"0";"";"img2/jap/6.jpg";"";76734;"";96;"image-keyboard-response";"";""
"98";18;"condition1";"";"";"";"";"";"0.0-6.0-1.21";"";"";"1";"";"+";"";77040;"";97;"html-keyboard-response";"";""
"99";18;"condition1";"";"";"";"";"";"0.0-6.0-2.21";"";"";"2";"";"img2/jap/14.jpg";"";77254;"";98;"image-keyboard-response";"";""
"100";18;"condition1";"D";"J";"";"";"";"0.0-6.0-3.21";"d";"904";"3";"T";"Press S if the two images were the same, Press D if the two images were different.";"";78158;"";99;"html-keyboard-response";"";""
"101";18;"condition1";"";"";"";"";"";"0.0-6.0-0.22";"";"";"0";"";"img2/tools/12.jpg";"";78359;"";100;"image-keyboard-response";"";""
"102";18;"condition1";"";"";"";"";"";"0.0-6.0-1.22";"";"";"1";"";"+";"";78665;"";101;"html-keyboard-response";"";""
"103";18;"condition1";"";"";"";"";"";"0.0-6.0-2.22";"";"";"2";"";"img2/Mtools/12.jpg";"";78883;"";102;"image-keyboard-response";"";""
"104";18;"condition1";"S";"O";"";"";"";"0.0-6.0-3.22";"d";"540";"3";"M";"Press S if the two images were the same, Press D if the two images were different.";"";79424;"";103;"html-keyboard-response";"";""
"105";18;"condition1";"";"";"";"";"";"0.0-6.0-0.23";"";"";"0";"";"img2/french/12.jpg";"";79636;"";104;"image-keyboard-response";"";""
"106";18;"condition1";"";"";"";"";"";"0.0-6.0-1.23";"";"";"1";"";"+";"";79943;"";105;"html-keyboard-response";"";""
"107";18;"condition1";"";"";"";"";"";"0.0-6.0-2.23";"";"";"2";"";"img2/french/12.jpg";"";80158;"";106;"image-keyboard-response";"";""
"108";18;"condition1";"S";"R";"";"";"";"0.0-6.0-3.23";"s";"367";"3";"T";"Press S if the two images were the same, Press D if the two images were different.";"";80535;"";107;"html-keyboard-response";"";""
"109";18;"condition1";"";"";"";"";"";"0.0-6.0-0.24";"";"";"0";"";"img2/french/1.jpg";"";80744;"";108;"image-keyboard-response";"";""
"110";18;"condition1";"";"";"";"";"";"0.0-6.0-1.24";"";"";"1";"";"+";"";81050;"";109;"html-keyboard-response";"";""
"111";18;"condition1";"";"";"";"";"";"0.0-6.0-2.24";"";"";"2";"";"img2/french/7.jpg";"";81264;"";110;"image-keyboard-response";"";""
"112";18;"condition1";"D";"R";"";"";"";"0.0-6.0-3.24";"d";"581";"3";"T";"Press S if the two images were the same, Press D if the two images were different.";"";81845;"";111;"html-keyboard-response";"";""
"113";18;"condition1";"";"";"";"";"";"0.0-6.0-0.25";"";"";"0";"";"img2/false/12.jpg";"";82063;"";112;"image-keyboard-response";"";""
"114";18;"condition1";"";"";"";"";"";"0.0-6.0-1.25";"";"";"1";"";"+";"";82386;"";113;"html-keyboard-response";"";""
"115";18;"condition1";"";"";"";"";"";"0.0-6.0-2.25";"";"";"2";"";"img2/false/8.jpg";"";82588;"";114;"image-keyboard-response";"";""
"116";18;"condition1";"D";"M";"";"";"";"0.0-6.0-3.25";"d";"450";"3";"T";"Press S if the two images were the same, Press D if the two images were different.";"";83038;"";115;"html-keyboard-response";"";""
"117";18;"condition1";"";"";"";"";"";"0.0-6.0-0.26";"";"";"0";"";"img2/false/1.jpg";"";83251;"";116;"image-keyboard-response";"";""
"118";18;"condition1";"";"";"";"";"";"0.0-6.0-1.26";"";"";"1";"";"+";"";83559;"";117;"html-keyboard-response";"";""
"119";18;"condition1";"";"";"";"";"";"0.0-6.0-2.26";"";"";"2";"";"img2/false/1.jpg";"";83760;"";118;"image-keyboard-response";"";""
"120";18;"condition1";"S";"M";"";"";"";"0.0-6.0-3.26";"s";"348";"3";"T";"Press S if the two images were the same, Press D if the two images were different.";"";84109;"";119;"html-keyboard-response";"";""
"121";18;"condition1";"";"";"";"";"";"0.0-6.0-0.27";"";"";"0";"";"img2/french/5.jpg";"";84329;"";120;"image-keyboard-response";"";""
"122";18;"condition1";"";"";"";"";"";"0.0-6.0-1.27";"";"";"1";"";"+";"";84637;"";121;"html-keyboard-response";"";""
"123";18;"condition1";"";"";"";"";"";"0.0-6.0-2.27";"";"";"2";"";"img2/french/5.jpg";"";84852;"";122;"image-keyboard-response";"";""
"124";18;"condition1";"S";"R";"";"";"";"0.0-6.0-3.27";"s";"409";"3";"T";"Press S if the two images were the same, Press D if the two images were different.";"";85262;"";123;"html-keyboard-response";"";""
"125";18;"condition1";"";"";"";"";"";"0.0-6.0-0.28";"";"";"0";"";"img2/french/9.jpg";"";85469;"";124;"image-keyboard-response";"";""
"126";18;"condition1";"";"";"";"";"";"0.0-6.0-1.28";"";"";"1";"";"+";"";85776;"";125;"html-keyboard-response";"";""
"127";18;"condition1";"";"";"";"";"";"0.0-6.0-2.28";"";"";"2";"";"img2/Mfrench/9.jpg";"";85988;"";126;"image-keyboard-response";"";""
"128";18;"condition1";"S";"R";"";"";"";"0.0-6.0-3.28";"d";"385";"3";"M";"Press S if the two images were the same, Press D if the two images were different.";"";86374;"";127;"html-keyboard-response";"";""
"129";18;"condition1";"";"";"";"";"";"0.0-6.0-0.29";"";"";"0";"";"img2/french/10.jpg";"";86585;"";128;"image-keyboard-response";"";""
"130";18;"condition1";"";"";"";"";"";"0.0-6.0-1.29";"";"";"1";"";"+";"";86907;"";129;"html-keyboard-response";"";""
"131";18;"condition1";"";"";"";"";"";"0.0-6.0-2.29";"";"";"2";"";"img2/Mfrench/10.jpg";"";87123;"";130;"image-keyboard-response";"";""
"132";18;"condition1";"S";"R";"";"";"";"0.0-6.0-3.29";"d";"589";"3";"M";"Press S if the two images were the same, Press D if the two images were different.";"";87712;"";131;"html-keyboard-response";"";""
"133";18;"condition1";"";"";"";"";"";"0.0-6.0-0.30";"";"";"0";"";"img2/Mfrench/13.jpg";"";87923;"";132;"image-keyboard-response";"";""
"134";18;"condition1";"";"";"";"";"";"0.0-6.0-1.30";"";"";"1";"";"+";"";88232;"";133;"html-keyboard-response";"";""
"135";18;"condition1";"";"";"";"";"";"0.0-6.0-2.30";"";"";"2";"";"img2/Mfrench/11.jpg";"";88450;"";134;"image-keyboard-response";"";""
"136";18;"condition1";"D";"R";"";"";"";"0.0-6.0-3.30";"d";"1035";"3";"M";"Press S if the two images were the same, Press D if the two images were different.";"";89485;"";135;"html-keyboard-response";"";""
"137";18;"condition1";"";"";"";"";"";"0.0-6.0-0.31";"";"";"0";"";"img2/tools/3.jpg";"";89693;"";136;"image-keyboard-response";"";""
"138";18;"condition1";"";"";"";"";"";"0.0-6.0-1.31";"";"";"1";"";"+";"";89999;"";137;"html-keyboard-response";"";""
"139";18;"condition1";"";"";"";"";"";"0.0-6.0-2.31";"";"";"2";"";"img2/tools/13.jpg";"";90214;"";138;"image-keyboard-response";"";""
"140";18;"condition1";"D";"O";"";"";"";"0.0-6.0-3.31";"d";"511";"3";"T";"Press S if the two images were the same, Press D if the two images were different.";"";90726;"";139;"html-keyboard-response";"";""
"141";18;"condition1";"";"";"";"";"";"0.0-6.0-0.32";"";"";"0";"";"img2/tools/13.jpg";"";90938;"";140;"image-keyboard-response";"";""
"142";18;"condition1";"";"";"";"";"";"0.0-6.0-1.32";"";"";"1";"";"+";"";91247;"";141;"html-keyboard-response";"";""
"143";18;"condition1";"";"";"";"";"";"0.0-6.0-2.32";"";"";"2";"";"img2/tools/13.jpg";"";91462;"";142;"image-keyboard-response";"";""
"144";18;"condition1";"S";"O";"";"";"";"0.0-6.0-3.32";"s";"447";"3";"T";"Press S if the two images were the same, Press D if the two images were different.";"";91910;"";143;"html-keyboard-response";"";""
"145";18;"condition1";"";"";"";"";"";"0.0-6.0-0.33";"";"";"0";"";"img2/faces/1.jpg";"";92128;"";144;"image-keyboard-response";"";""
"146";18;"condition1";"";"";"";"";"";"0.0-6.0-1.33";"";"";"1";"";"+";"";92450;"";145;"html-keyboard-response";"";""
"147";18;"condition1";"";"";"";"";"";"0.0-6.0-2.33";"";"";"2";"";"img2/faces/1.jpg";"";92666;"";146;"image-keyboard-response";"";""
"148";18;"condition1";"S";"H";"";"";"";"0.0-6.0-3.33";"s";"285";"3";"T";"Press S if the two images were the same, Press D if the two images were different.";"";92951;"";147;"html-keyboard-response";"";""
"149";18;"condition1";"";"";"";"";"";"0.0-6.0-0.34";"";"";"0";"";"img2/jap/4.jpg";"";93170;"";148;"image-keyboard-response";"";""
"150";18;"condition1";"";"";"";"";"";"0.0-6.0-1.34";"";"";"1";"";"+";"";93480;"";149;"html-keyboard-response";"";""
"151";18;"condition1";"";"";"";"";"";"0.0-6.0-2.34";"";"";"2";"";"img2/jap/4.jpg";"";93696;"";150;"image-keyboard-response";"";""
"152";18;"condition1";"S";"J";"";"";"";"0.0-6.0-3.34";"s";"381";"3";"T";"Press S if the two images were the same, Press D if the two images were different.";"";94078;"";151;"html-keyboard-response";"";""
"153";18;"condition1";"";"";"";"";"";"0.0-6.0-0.35";"";"";"0";"";"img2/faces/10.jpg";"";94293;"";152;"image-keyboard-response";"";""
"154";18;"condition1";"";"";"";"";"";"0.0-6.0-1.35";"";"";"1";"";"+";"";94601;"";153;"html-keyboard-response";"";""
"155";18;"condition1";"";"";"";"";"";"0.0-6.0-2.35";"";"";"2";"";"img2/Mfaces/10.jpg";"";94817;"";154;"image-keyboard-response";"";""
"156";18;"condition1";"S";"H";"";"";"";"0.0-6.0-3.35";"d";"388";"3";"M";"Press S if the two images were the same, Press D if the two images were different.";"";95205;"";155;"html-keyboard-response";"";""
"157";18;"condition1";"";"";"";"";"";"0.0-6.0-0.36";"";"";"0";"";"img2/tools/5.jpg";"";95419;"";156;"image-keyboard-response";"";""
"158";18;"condition1";"";"";"";"";"";"0.0-6.0-1.36";"";"";"1";"";"+";"";95725;"";157;"html-keyboard-response";"";""
"159";18;"condition1";"";"";"";"";"";"0.0-6.0-2.36";"";"";"2";"";"img2/Mtools/5.jpg";"";95941;"";158;"image-keyboard-response";"";""
"160";18;"condition1";"S";"O";"";"";"";"0.0-6.0-3.36";"d";"504";"3";"M";"Press S if the two images were the same, Press D if the two images were different.";"";96446;"";159;"html-keyboard-response";"";""
"161";18;"condition1";"";"";"";"";"";"0.0-6.0-0.37";"";"";"0";"";"img2/faces/2.jpg";"";96666;"";160;"image-keyboard-response";"";""
"162";18;"condition1";"";"";"";"";"";"0.0-6.0-1.37";"";"";"1";"";"+";"";96973;"";161;"html-keyboard-response";"";""
"163";18;"condition1";"";"";"";"";"";"0.0-6.0-2.37";"";"";"2";"";"img2/Mfaces/2.jpg";"";97188;"";162;"image-keyboard-response";"";""
"164";18;"condition1";"S";"H";"";"";"";"0.0-6.0-3.37";"d";"505";"3";"M";"Press S if the two images were the same, Press D if the two images were different.";"";97694;"";163;"html-keyboard-response";"";""
"165";18;"condition1";"";"";"";"";"";"0.0-6.0-0.38";"";"";"0";"";"img2/faces/2.jpg";"";97914;"";164;"image-keyboard-response";"";""
"166";18;"condition1";"";"";"";"";"";"0.0-6.0-1.38";"";"";"1";"";"+";"";98223;"";165;"html-keyboard-response";"";""
"167";18;"condition1";"";"";"";"";"";"0.0-6.0-2.38";"";"";"2";"";"img2/faces/2.jpg";"";98439;"";166;"image-keyboard-response";"";""
"168";18;"condition1";"S";"H";"";"";"";"0.0-6.0-3.38";"s";"384";"3";"T";"Press S if the two images were the same, Press D if the two images were different.";"";98824;"";167;"html-keyboard-response";"";""
"169";18;"condition1";"";"";"";"";"";"0.0-6.0-0.39";"";"";"0";"";"img2/tools/8.jpg";"";99030;"";168;"image-keyboard-response";"";""
"170";18;"condition1";"";"";"";"";"";"0.0-6.0-1.39";"";"";"1";"";"+";"";99336;"";169;"html-keyboard-response";"";""
"171";18;"condition1";"";"";"";"";"";"0.0-6.0-2.39";"";"";"2";"";"img2/Mtools/8.jpg";"";99554;"";170;"image-keyboard-response";"";""
"172";18;"condition1";"S";"O";"";"";"";"0.0-6.0-3.39";"d";"499";"3";"M";"Press S if the two images were the same, Press D if the two images were different.";"";100053;"";171;"html-keyboard-response";"";""
"173";18;"condition1";"";"";"";"";"";"0.0-6.0-0.40";"";"";"0";"";"img2/french/7.jpg";"";100272;"";172;"image-keyboard-response";"";""
"174";18;"condition1";"";"";"";"";"";"0.0-6.0-1.40";"";"";"1";"";"+";"";100594;"";173;"html-keyboard-response";"";""
"175";18;"condition1";"";"";"";"";"";"0.0-6.0-2.40";"";"";"2";"";"img2/french/13.jpg";"";100809;"";174;"image-keyboard-response";"";""
"176";18;"condition1";"D";"R";"";"";"";"0.0-6.0-3.40";"d";"500";"3";"T";"Press S if the two images were the same, Press D if the two images were different.";"";101310;"";175;"html-keyboard-response";"";""
"177";18;"condition1";"";"";"";"";"";"0.0-6.0-0.41";"";"";"0";"";"img2/Mtools/13.jpg";"";101522;"";176;"image-keyboard-response";"";""
"178";18;"condition1";"";"";"";"";"";"0.0-6.0-1.41";"";"";"1";"";"+";"";101829;"";177;"html-keyboard-response";"";""
"179";18;"condition1";"";"";"";"";"";"0.0-6.0-2.41";"";"";"2";"";"img2/Mtools/11.jpg";"";102044;"";178;"image-keyboard-response";"";""
"180";18;"condition1";"D";"O";"";"";"";"0.0-6.0-3.41";"d";"537";"3";"M";"Press S if the two images were the same, Press D if the two images were different.";"";102582;"";179;"html-keyboard-response";"";""
"181";18;"condition1";"";"";"";"";"";"0.0-6.0-0.42";"";"";"0";"";"img2/Mfalse/10.jpg";"";102799;"";180;"image-keyboard-response";"";""
"182";18;"condition1";"";"";"";"";"";"0.0-6.0-1.42";"";"";"1";"";"+";"";103120;"";181;"html-keyboard-response";"";""
"183";18;"condition1";"";"";"";"";"";"0.0-6.0-2.42";"";"";"2";"";"img2/Mfalse/12.jpg";"";103334;"";182;"image-keyboard-response";"";""
"184";18;"condition1";"D";"M";"";"";"";"0.0-6.0-3.42";"d";"419";"3";"M";"Press S if the two images were the same, Press D if the two images were different.";"";103753;"";183;"html-keyboard-response";"";""
"185";18;"condition1";"";"";"";"";"";"0.0-6.0-0.43";"";"";"0";"";"img2/jap/11.jpg";"";103964;"";184;"image-keyboard-response";"";""
"186";18;"condition1";"";"";"";"";"";"0.0-6.0-1.43";"";"";"1";"";"+";"";104270;"";185;"html-keyboard-response";"";""
"187";18;"condition1";"";"";"";"";"";"0.0-6.0-2.43";"";"";"2";"";"img2/jap/11.jpg";"";104484;"";186;"image-keyboard-response";"";""
"188";18;"condition1";"S";"J";"";"";"";"0.0-6.0-3.43";"s";"337";"3";"T";"Press S if the two images were the same, Press D if the two images were different.";"";104821;"";187;"html-keyboard-response";"";""
"189";18;"condition1";"";"";"";"";"";"0.0-6.0-0.44";"";"";"0";"";"img2/french/3.jpg";"";105035;"";188;"image-keyboard-response";"";""
"190";18;"condition1";"";"";"";"";"";"0.0-6.0-1.44";"";"";"1";"";"+";"";105342;"";189;"html-keyboard-response";"";""
"191";18;"condition1";"";"";"";"";"";"0.0-6.0-2.44";"";"";"2";"";"img2/french/3.jpg";"";105557;"";190;"image-keyboard-response";"";""
"192";18;"condition1";"S";"R";"";"";"";"0.0-6.0-3.44";"s";"424";"3";"T";"Press S if the two images were the same, Press D if the two images were different.";"";105982;"";191;"html-keyboard-response";"";""
"193";18;"condition1";"";"";"";"";"";"0.0-6.0-0.45";"";"";"0";"";"img2/jap/2.jpg";"";106190;"";192;"image-keyboard-response";"";""
"194";18;"condition1";"";"";"";"";"";"0.0-6.0-1.45";"";"";"1";"";"+";"";106500;"";193;"html-keyboard-response";"";""
"195";18;"condition1";"";"";"";"";"";"0.0-6.0-2.45";"";"";"2";"";"img2/Mjap/2.jpg";"";106717;"";194;"image-keyboard-response";"";""
"196";18;"condition1";"S";"J";"";"";"";"0.0-6.0-3.45";"d";"511";"3";"M";"Press S if the two images were the same, Press D if the two images were different.";"";107229;"";195;"html-keyboard-response";"";""
"197";18;"condition1";"";"";"";"";"";"0.0-6.0-0.46";"";"";"0";"";"img2/Mfalse/2.jpg";"";107444;"";196;"image-keyboard-response";"";""
"198";18;"condition1";"";"";"";"";"";"0.0-6.0-1.46";"";"";"1";"";"+";"";107749;"";197;"html-keyboard-response";"";""
"199";18;"condition1";"";"";"";"";"";"0.0-6.0-2.46";"";"";"2";"";"img2/Mfalse/9.jpg";"";107966;"";198;"image-keyboard-response";"";""
"200";18;"condition1";"D";"M";"";"";"";"0.0-6.0-3.46";"d";"592";"3";"M";"Press S if the two images were the same, Press D if the two images were different.";"";108558;"";199;"html-keyboard-response";"";""
"201";18;"condition1";"";"";"";"";"";"0.0-6.0-0.47";"";"";"0";"";"img2/false/13.jpg";"";108769;"";200;"image-keyboard-response";"";""
"202";18;"condition1";"";"";"";"";"";"0.0-6.0-1.47";"";"";"1";"";"+";"";109075;"";201;"html-keyboard-response";"";""
"203";18;"condition1";"";"";"";"";"";"0.0-6.0-2.47";"";"";"2";"";"img2/Mfalse/13.jpg";"";109290;"";202;"image-keyboard-response";"";""
"204";18;"condition1";"S";"M";"";"";"";"0.0-6.0-3.47";"d";"485";"3";"M";"Press S if the two images were the same, Press D if the two images were different.";"";109776;"";203;"html-keyboard-response";"";""
"205";18;"condition1";"";"";"";"";"";"0.0-6.0-0.48";"";"";"0";"";"img2/tools/14.jpg";"";109983;"";204;"image-keyboard-response";"";""
"206";18;"condition1";"";"";"";"";"";"0.0-6.0-1.48";"";"";"1";"";"+";"";110291;"";205;"html-keyboard-response";"";""
"207";18;"condition1";"";"";"";"";"";"0.0-6.0-2.48";"";"";"2";"";"img2/tools/14.jpg";"";110505;"";206;"image-keyboard-response";"";""
"208";18;"condition1";"S";"O";"";"";"";"0.0-6.0-3.48";"s";"228";"3";"T";"Press S if the two images were the same, Press D if the two images were different.";"";110733;"";207;"html-keyboard-response";"";""
"209";18;"condition1";"";"";"";"";"";"0.0-6.0-0.49";"";"";"0";"";"img2/french/11.jpg";"";110946;"";208;"image-keyboard-response";"";""
"210";18;"condition1";"";"";"";"";"";"0.0-6.0-1.49";"";"";"1";"";"+";"";111267;"";209;"html-keyboard-response";"";""
"211";18;"condition1";"";"";"";"";"";"0.0-6.0-2.49";"";"";"2";"";"img2/Mfrench/11.jpg";"";111481;"";210;"image-keyboard-response";"";""
"212";18;"condition1";"S";"R";"";"";"";"0.0-6.0-3.49";"d";"357";"3";"M";"Press S if the two images were the same, Press D if the two images were different.";"";111839;"";211;"html-keyboard-response";"";""
"213";18;"condition1";"";"";"";"";"";"0.0-6.0-0.50";"";"";"0";"";"img2/french/7.jpg";"";112050;"";212;"image-keyboard-response";"";""
"214";18;"condition1";"";"";"";"";"";"0.0-6.0-1.50";"";"";"1";"";"+";"";112357;"";213;"html-keyboard-response";"";""
"215";18;"condition1";"";"";"";"";"";"0.0-6.0-2.50";"";"";"2";"";"img2/Mfrench/7.jpg";"";112571;"";214;"image-keyboard-response";"";""
"216";18;"condition1";"S";"R";"";"";"";"0.0-6.0-3.50";"d";"577";"3";"M";"Press S if the two images were the same, Press D if the two images were different.";"";113149;"";215;"html-keyboard-response";"";""
"217";18;"condition1";"";"";"";"";"";"0.0-6.0-0.51";"";"";"0";"";"img2/faces/9.jpg";"";113357;"";216;"image-keyboard-response";"";""
"218";18;"condition1";"";"";"";"";"";"0.0-6.0-1.51";"";"";"1";"";"+";"";113665;"";217;"html-keyboard-response";"";""
"219";18;"condition1";"";"";"";"";"";"0.0-6.0-2.51";"";"";"2";"";"img2/faces/9.jpg";"";113884;"";218;"image-keyboard-response";"";""
"220";18;"condition1";"S";"H";"";"";"";"0.0-6.0-3.51";"s";"441";"3";"T";"Press S if the two images were the same, Press D if the two images were different.";"";114325;"";219;"html-keyboard-response";"";""
"221";18;"condition1";"";"";"";"";"";"0.0-6.0-0.52";"";"";"0";"";"img2/tools/7.jpg";"";114544;"";220;"image-keyboard-response";"";""
"222";18;"condition1";"";"";"";"";"";"0.0-6.0-1.52";"";"";"1";"";"+";"";114854;"";221;"html-keyboard-response";"";""
"223";18;"condition1";"";"";"";"";"";"0.0-6.0-2.52";"";"";"2";"";"img2/tools/13.jpg";"";115068;"";222;"image-keyboard-response";"";""
"224";18;"condition1";"D";"O";"";"";"";"0.0-6.0-3.52";"d";"442";"3";"T";"Press S if the two images were the same, Press D if the two images were different.";"";115510;"";223;"html-keyboard-response";"";""
"225";18;"condition1";"";"";"";"";"";"0.0-6.0-0.53";"";"";"0";"";"img2/faces/6.jpg";"";115719;"";224;"image-keyboard-response";"";""
"226";18;"condition1";"";"";"";"";"";"0.0-6.0-1.53";"";"";"1";"";"+";"";116043;"";225;"html-keyboard-response";"";""
"227";18;"condition1";"";"";"";"";"";"0.0-6.0-2.53";"";"";"2";"";"img2/Mfaces/6.jpg";"";116260;"";226;"image-keyboard-response";"";""
"228";18;"condition1";"S";"H";"";"";"";"0.0-6.0-3.53";"d";"450";"3";"M";"Press S if the two images were the same, Press D if the two images were different.";"";116710;"";227;"html-keyboard-response";"";""
"229";18;"condition1";"";"";"";"";"";"0.0-6.0-0.54";"";"";"0";"";"img2/jap/4.jpg";"";116923;"";228;"image-keyboard-response";"";""
"230";18;"condition1";"";"";"";"";"";"0.0-6.0-1.54";"";"";"1";"";"+";"";117230;"";229;"html-keyboard-response";"";""
"231";18;"condition1";"";"";"";"";"";"0.0-6.0-2.54";"";"";"2";"";"img2/jap/12.jpg";"";117445;"";230;"image-keyboard-response";"";""
"232";18;"condition1";"D";"J";"";"";"";"0.0-6.0-3.54";"d";"584";"3";"T";"Press S if the two images were the same, Press D if the two images were different.";"";118031;"";231;"html-keyboard-response";"";""
"233";18;"condition1";"";"";"";"";"";"0.0-6.0-0.55";"";"";"0";"";"img2/false/8.jpg";"";118249;"";232;"image-keyboard-response";"";""
"234";18;"condition1";"";"";"";"";"";"0.0-6.0-1.55";"";"";"1";"";"+";"";118557;"";233;"html-keyboard-response";"";""
"235";18;"condition1";"";"";"";"";"";"0.0-6.0-2.55";"";"";"2";"";"img2/Mfalse/8.jpg";"";118772;"";234;"image-keyboard-response";"";""
"236";18;"condition1";"S";"M";"";"";"";"0.0-6.0-3.55";"d";"401";"3";"M";"Press S if the two images were the same, Press D if the two images were different.";"";119174;"";235;"html-keyboard-response";"";""
"237";18;"condition1";"";"";"";"";"";"0.0-6.0-0.56";"";"";"0";"";"img2/jap/7.jpg";"";119391;"";236;"image-keyboard-response";"";""
"238";18;"condition1";"";"";"";"";"";"0.0-6.0-1.56";"";"";"1";"";"+";"";119711;"";237;"html-keyboard-response";"";""
"239";18;"condition1";"";"";"";"";"";"0.0-6.0-2.56";"";"";"2";"";"img2/jap/7.jpg";"";119929;"";238;"image-keyboard-response";"";""
"240";18;"condition1";"S";"J";"";"";"";"0.0-6.0-3.56";"s";"365";"3";"T";"Press S if the two images were the same, Press D if the two images were different.";"";120295;"";239;"html-keyboard-response";"";""
"241";18;"condition1";"";"";"";"";"";"0.0-6.0-0.57";"";"";"0";"";"img2/jap/13.jpg";"";120511;"";240;"image-keyboard-response";"";""
"242";18;"condition1";"";"";"";"";"";"0.0-6.0-1.57";"";"";"1";"";"+";"";120818;"";241;"html-keyboard-response";"";""
"243";18;"condition1";"";"";"";"";"";"0.0-6.0-2.57";"";"";"2";"";"img2/Mjap/13.jpg";"";121031;"";242;"image-keyboard-response";"";""
"244";18;"condition1";"S";"J";"";"";"";"0.0-6.0-3.57";"s";"615";"3";"M";"Press S if the two images were the same, Press D if the two images were different.";"";121646;"";243;"html-keyboard-response";"";""
"245";18;"condition1";"";"";"";"";"";"0.0-6.0-0.58";"";"";"0";"";"img2/Mfaces/13.jpg";"";121863;"";244;"image-keyboard-response";"";""
"246";18;"condition1";"";"";"";"";"";"0.0-6.0-1.58";"";"";"1";"";"+";"";122168;"";245;"html-keyboard-response";"";""
"247";18;"condition1";"";"";"";"";"";"0.0-6.0-2.58";"";"";"2";"";"img2/Mfaces/11.jpg";"";122371;"";246;"image-keyboard-response";"";""
"248";18;"condition1";"D";"H";"";"";"";"0.0-6.0-3.58";"d";"460";"3";"M";"Press S if the two images were the same, Press D if the two images were different.";"";122831;"";247;"html-keyboard-response";"";""
"249";18;"condition1";"";"";"";"";"";"0.0-6.0-0.59";"";"";"0";"";"img2/Mtools/12.jpg";"";123047;"";248;"image-keyboard-response";"";""
"250";18;"condition1";"";"";"";"";"";"0.0-6.0-1.59";"";"";"1";"";"+";"";123370;"";249;"html-keyboard-response";"";""
"251";18;"condition1";"";"";"";"";"";"0.0-6.0-2.59";"";"";"2";"";"img2/Mtools/8.jpg";"";123571;"";250;"image-keyboard-response";"";""
"252";18;"condition1";"D";"O";"";"";"";"0.0-6.0-3.59";"d";"603";"3";"M";"Press S if the two images were the same, Press D if the two images were different.";"";124174;"";251;"html-keyboard-response";"";""
"253";18;"condition1";"";"";"";"";"";"0.0-6.0-0.60";"";"";"0";"";"img2/french/14.jpg";"";124386;"";252;"image-keyboard-response";"";""
"254";18;"condition1";"";"";"";"";"";"0.0-6.0-1.60";"";"";"1";"";"+";"";124696;"";253;"html-keyboard-response";"";""
"255";18;"condition1";"";"";"";"";"";"0.0-6.0-2.60";"";"";"2";"";"img2/Mfrench/14.jpg";"";124909;"";254;"image-keyboard-response";"";""
"256";18;"condition1";"S";"R";"";"";"";"0.0-6.0-3.60";"d";"361";"3";"M";"Press S if the two images were the same, Press D if the two images were different.";"";125271;"";255;"html-keyboard-response";"";""
"257";18;"condition1";"";"";"";"";"";"0.0-6.0-0.61";"";"";"0";"";"img2/Mtools/5.jpg";"";125489;"";256;"image-keyboard-response";"";""
"258";18;"condition1";"";"";"";"";"";"0.0-6.0-1.61";"";"";"1";"";"+";"";125809;"";257;"html-keyboard-response";"";""
"259";18;"condition1";"";"";"";"";"";"0.0-6.0-2.61";"";"";"2";"";"img2/Mtools/12.jpg";"";126022;"";258;"image-keyboard-response";"";""
"260";18;"condition1";"D";"O";"";"";"";"0.0-6.0-3.61";"d";"359";"3";"M";"Press S if the two images were the same, Press D if the two images were different.";"";126382;"";259;"html-keyboard-response";"";""
"261";18;"condition1";"";"";"";"";"";"0.0-6.0-0.62";"";"";"0";"";"img2/french/9.jpg";"";126592;"";260;"image-keyboard-response";"";""
"262";18;"condition1";"";"";"";"";"";"0.0-6.0-1.62";"";"";"1";"";"+";"";126899;"";261;"html-keyboard-response";"";""
"263";18;"condition1";"";"";"";"";"";"0.0-6.0-2.62";"";"";"2";"";"img2/french/9.jpg";"";127117;"";262;"image-keyboard-response";"";""
"264";18;"condition1";"S";"R";"";"";"";"0.0-6.0-3.62";"s";"281";"3";"T";"Press S if the two images were the same, Press D if the two images were different.";"";127398;"";263;"html-keyboard-response";"";""
"265";18;"condition1";"";"";"";"";"";"0.0-6.0-0.63";"";"";"0";"";"img2/Mfalse/13.jpg";"";127606;"";264;"image-keyboard-response";"";""
"266";18;"condition1";"";"";"";"";"";"0.0-6.0-1.63";"";"";"1";"";"+";"";127911;"";265;"html-keyboard-response";"";""
"267";18;"condition1";"";"";"";"";"";"0.0-6.0-2.63";"";"";"2";"";"img2/Mfalse/11.jpg";"";128129;"";266;"image-keyboard-response";"";""
"268";18;"condition1";"D";"M";"";"";"";"0.0-6.0-3.63";"d";"990";"3";"M";"Press S if the two images were the same, Press D if the two images were different.";"";129119;"";267;"html-keyboard-response";"";""
"269";18;"condition1";"";"";"";"";"";"0.0-6.0-0.64";"";"";"0";"";"img2/false/7.jpg";"";129331;"";268;"image-keyboard-response";"";""
"270";18;"condition1";"";"";"";"";"";"0.0-6.0-1.64";"";"";"1";"";"+";"";129641;"";269;"html-keyboard-response";"";""
"271";18;"condition1";"";"";"";"";"";"0.0-6.0-2.64";"";"";"2";"";"img2/false/7.jpg";"";129855;"";270;"image-keyboard-response";"";""
"272";18;"condition1";"S";"M";"";"";"";"0.0-6.0-3.64";"s";"567";"3";"T";"Press S if the two images were the same, Press D if the two images were different.";"";130423;"";271;"html-keyboard-response";"";""
"273";18;"condition1";"";"";"";"";"";"0.0-6.0-0.65";"";"";"0";"";"img2/faces/11.jpg";"";130631;"";272;"image-keyboard-response";"";""
"274";18;"condition1";"";"";"";"";"";"0.0-6.0-1.65";"";"";"1";"";"+";"";130942;"";273;"html-keyboard-response";"";""
"275";18;"condition1";"";"";"";"";"";"0.0-6.0-2.65";"";"";"2";"";"img2/Mfaces/11.jpg";"";131158;"";274;"image-keyboard-response";"";""
"276";18;"condition1";"S";"H";"";"";"";"0.0-6.0-3.65";"s";"1007";"3";"M";"Press S if the two images were the same, Press D if the two images were different.";"";132166;"";275;"html-keyboard-response";"";""
"277";18;"condition1";"";"";"";"";"";"0.0-6.0-0.66";"";"";"0";"";"img2/tools/6.jpg";"";132372;"";276;"image-keyboard-response";"";""
"278";18;"condition1";"";"";"";"";"";"0.0-6.0-1.66";"";"";"1";"";"+";"";132679;"";277;"html-keyboard-response";"";""
"279";18;"condition1";"";"";"";"";"";"0.0-6.0-2.66";"";"";"2";"";"img2/Mtools/6.jpg";"";132894;"";278;"image-keyboard-response";"";""
"280";18;"condition1";"S";"O";"";"";"";"0.0-6.0-3.66";"d";"520";"3";"M";"Press S if the two images were the same, Press D if the two images were different.";"";133414;"";279;"html-keyboard-response";"";""
"281";18;"condition1";"";"";"";"";"";"0.0-6.0-0.67";"";"";"0";"";"img2/faces/7.jpg";"";133631;"";280;"image-keyboard-response";"";""
"282";18;"condition1";"";"";"";"";"";"0.0-6.0-1.67";"";"";"1";"";"+";"";133939;"";281;"html-keyboard-response";"";""
"283";18;"condition1";"";"";"";"";"";"0.0-6.0-2.67";"";"";"2";"";"img2/Mfaces/7.jpg";"";134157;"";282;"image-keyboard-response";"";""
"284";18;"condition1";"S";"H";"";"";"";"0.0-6.0-3.67";"d";"889";"3";"M";"Press S if the two images were the same, Press D if the two images were different.";"";135046;"";283;"html-keyboard-response";"";""
"285";18;"condition1";"";"";"";"";"";"0.0-6.0-0.68";"";"";"0";"";"img2/jap/3.jpg";"";135262;"";284;"image-keyboard-response";"";""
"286";18;"condition1";"";"";"";"";"";"0.0-6.0-1.68";"";"";"1";"";"+";"";135568;"";285;"html-keyboard-response";"";""
"287";18;"condition1";"";"";"";"";"";"0.0-6.0-2.68";"";"";"2";"";"img2/jap/3.jpg";"";135769;"";286;"image-keyboard-response";"";""
"288";18;"condition1";"S";"J";"";"";"";"0.0-6.0-3.68";"s";"620";"3";"T";"Press S if the two images were the same, Press D if the two images were different.";"";136390;"";287;"html-keyboard-response";"";""
"289";18;"condition1";"";"";"";"";"";"0.0-6.0-0.69";"";"";"0";"";"img2/false/9.jpg";"";136603;"";288;"image-keyboard-response";"";""
"290";18;"condition1";"";"";"";"";"";"0.0-6.0-1.69";"";"";"1";"";"+";"";136913;"";289;"html-keyboard-response";"";""
"291";18;"condition1";"";"";"";"";"";"0.0-6.0-2.69";"";"";"2";"";"img2/Mfalse/9.jpg";"";137128;"";290;"image-keyboard-response";"";""
"292";18;"condition1";"S";"M";"";"";"";"0.0-6.0-3.69";"s";"1014";"3";"M";"Press S if the two images were the same, Press D if the two images were different.";"";138143;"";291;"html-keyboard-response";"";""
"293";18;"condition1";"";"";"";"";"";"0.0-6.0-0.70";"";"";"0";"";"img2/false/7.jpg";"";138356;"";292;"image-keyboard-response";"";""
"294";18;"condition1";"";"";"";"";"";"0.0-6.0-1.70";"";"";"1";"";"+";"";138665;"";293;"html-keyboard-response";"";""
"295";18;"condition1";"";"";"";"";"";"0.0-6.0-2.70";"";"";"2";"";"img2/false/13.jpg";"";138877;"";294;"image-keyboard-response";"";""
"296";18;"condition1";"D";"M";"";"";"";"0.0-6.0-3.70";"d";"456";"3";"T";"Press S if the two images were the same, Press D if the two images were different.";"";139334;"";295;"html-keyboard-response";"";""
"297";18;"condition1";"";"";"";"";"";"0.0-6.0-0.71";"";"";"0";"";"img2/french/9.jpg";"";139540;"";296;"image-keyboard-response";"";""
"298";18;"condition1";"";"";"";"";"";"0.0-6.0-1.71";"";"";"1";"";"+";"";139850;"";297;"html-keyboard-response";"";""
"299";18;"condition1";"";"";"";"";"";"0.0-6.0-2.71";"";"";"2";"";"img2/french/12.jpg";"";140062;"";298;"image-keyboard-response";"";""
"300";18;"condition1";"D";"R";"";"";"";"0.0-6.0-3.71";"d";"296";"3";"T";"Press S if the two images were the same, Press D if the two images were different.";"";140359;"";299;"html-keyboard-response";"";""
"301";18;"condition1";"";"";"";"";"";"0.0-6.0-0.72";"";"";"0";"";"img2/jap/12.jpg";"";140571;"";300;"image-keyboard-response";"";""
"302";18;"condition1";"";"";"";"";"";"0.0-6.0-1.72";"";"";"1";"";"+";"";140877;"";301;"html-keyboard-response";"";""
"303";18;"condition1";"";"";"";"";"";"0.0-6.0-2.72";"";"";"2";"";"img2/jap/8.jpg";"";141091;"";302;"image-keyboard-response";"";""
"304";18;"condition1";"D";"J";"";"";"";"0.0-6.0-3.72";"d";"451";"3";"T";"Press S if the two images were the same, Press D if the two images were different.";"";141543;"";303;"html-keyboard-response";"";""
"305";18;"condition1";"";"";"";"";"";"0.0-6.0-0.73";"";"";"0";"";"img2/faces/7.jpg";"";141763;"";304;"image-keyboard-response";"";""
"306";18;"condition1";"";"";"";"";"";"0.0-6.0-1.73";"";"";"1";"";"+";"";142083;"";305;"html-keyboard-response";"";""
"307";18;"condition1";"";"";"";"";"";"0.0-6.0-2.73";"";"";"2";"";"img2/faces/7.jpg";"";142298;"";306;"image-keyboard-response";"";""
"308";18;"condition1";"S";"H";"";"";"";"0.0-6.0-3.73";"s";"260";"3";"T";"Press S if the two images were the same, Press D if the two images were different.";"";142558;"";307;"html-keyboard-response";"";""
"309";18;"condition1";"";"";"";"";"";"0.0-6.0-0.74";"";"";"0";"";"img2/faces/1.jpg";"";142761;"";308;"image-keyboard-response";"";""
"310";18;"condition1";"";"";"";"";"";"0.0-6.0-1.74";"";"";"1";"";"+";"";143066;"";309;"html-keyboard-response";"";""
"311";18;"condition1";"";"";"";"";"";"0.0-6.0-2.74";"";"";"2";"";"img2/faces/7.jpg";"";143280;"";310;"image-keyboard-response";"";""
"312";18;"condition1";"D";"H";"";"";"";"0.0-6.0-3.74";"d";"415";"3";"T";"Press S if the two images were the same, Press D if the two images were different.";"";143696;"";311;"html-keyboard-response";"";""
"313";18;"condition1";"";"";"";"";"";"0.0-6.0-0.75";"";"";"0";"";"img2/false/1.jpg";"";143909;"";312;"image-keyboard-response";"";""
"314";18;"condition1";"";"";"";"";"";"0.0-6.0-1.75";"";"";"1";"";"+";"";144215;"";313;"html-keyboard-response";"";""
"315";18;"condition1";"";"";"";"";"";"0.0-6.0-2.75";"";"";"2";"";"img2/false/7.jpg";"";144430;"";314;"image-keyboard-response";"";""
"316";18;"condition1";"D";"M";"";"";"";"0.0-6.0-3.75";"d";"471";"3";"T";"Press S if the two images were the same, Press D if the two images were different.";"";144902;"";315;"html-keyboard-response";"";""
"317";18;"condition1";"";"";"";"";"";"0.0-6.0-0.76";"";"";"0";"";"img2/Mjap/14.jpg";"";145108;"";316;"image-keyboard-response";"";""
"318";18;"condition1";"";"";"";"";"";"0.0-6.0-1.76";"";"";"1";"";"+";"";145414;"";317;"html-keyboard-response";"";""
"319";18;"condition1";"";"";"";"";"";"0.0-6.0-2.76";"";"";"2";"";"img2/Mjap/13.jpg";"";145631;"";318;"image-keyboard-response";"";""
"320";18;"condition1";"D";"J";"";"";"";"0.0-6.0-3.76";"d";"463";"3";"M";"Press S if the two images were the same, Press D if the two images were different.";"";146095;"";319;"html-keyboard-response";"";""
"321";18;"condition1";"";"";"";"";"";"0.0-6.0-0.77";"";"";"0";"";"img2/french/1.jpg";"";146308;"";320;"image-keyboard-response";"";""
"322";18;"condition1";"";"";"";"";"";"0.0-6.0-1.77";"";"";"1";"";"+";"";146616;"";321;"html-keyboard-response";"";""
"323";18;"condition1";"";"";"";"";"";"0.0-6.0-2.77";"";"";"2";"";"img2/Mfrench/1.jpg";"";146835;"";322;"image-keyboard-response";"";""
"324";18;"condition1";"S";"R";"";"";"";"0.0-6.0-3.77";"d";"324";"3";"M";"Press S if the two images were the same, Press D if the two images were different.";"";147167;"";323;"html-keyboard-response";"";""
"325";18;"condition1";"";"";"";"";"";"0.0-6.0-0.78";"";"";"0";"";"img2/Mfalse/4.jpg";"";147369;"";324;"image-keyboard-response";"";""
"326";18;"condition1";"";"";"";"";"";"0.0-6.0-1.78";"";"";"1";"";"+";"";147679;"";325;"html-keyboard-response";"";""
"327";18;"condition1";"";"";"";"";"";"0.0-6.0-2.78";"";"";"2";"";"img2/Mfalse/12.jpg";"";147894;"";326;"image-keyboard-response";"";""
"328";18;"condition1";"D";"M";"";"";"";"0.0-6.0-3.78";"d";"503";"3";"M";"Press S if the two images were the same, Press D if the two images were different.";"";148398;"";327;"html-keyboard-response";"";""
"329";18;"condition1";"";"";"";"";"";"0.0-6.0-0.79";"";"";"0";"";"img2/Mfalse/14.jpg";"";148617;"";328;"image-keyboard-response";"";""
"330";18;"condition1";"";"";"";"";"";"0.0-6.0-1.79";"";"";"1";"";"+";"";148938;"";329;"html-keyboard-response";"";""
"331";18;"condition1";"";"";"";"";"";"0.0-6.0-2.79";"";"";"2";"";"img2/Mfalse/13.jpg";"";149154;"";330;"image-keyboard-response";"";""
"332";18;"condition1";"D";"M";"";"";"";"0.0-6.0-3.79";"d";"540";"3";"M";"Press S if the two images were the same, Press D if the two images were different.";"";149694;"";331;"html-keyboard-response";"";""
"333";18;"condition1";"";"";"";"";"";"0.0-6.0-0.80";"";"";"0";"";"img2/tools/1.jpg";"";149907;"";332;"image-keyboard-response";"";""
"334";18;"condition1";"";"";"";"";"";"0.0-6.0-1.80";"";"";"1";"";"+";"";150213;"";333;"html-keyboard-response";"";""
"335";18;"condition1";"";"";"";"";"";"0.0-6.0-2.80";"";"";"2";"";"img2/Mtools/1.jpg";"";150429;"";334;"image-keyboard-response";"";""
"336";18;"condition1";"S";"O";"";"";"";"0.0-6.0-3.80";"d";"530";"3";"M";"Press S if the two images were the same, Press D if the two images were different.";"";150959;"";335;"html-keyboard-response";"";""
"337";18;"condition1";"";"";"";"";"";"0.0-6.0-0.81";"";"";"0";"";"img2/Mjap/3.jpg";"";151169;"";336;"image-keyboard-response";"";""
"338";18;"condition1";"";"";"";"";"";"0.0-6.0-1.81";"";"";"1";"";"+";"";151479;"";337;"html-keyboard-response";"";""
"339";18;"condition1";"";"";"";"";"";"0.0-6.0-2.81";"";"";"2";"";"img2/Mjap/13.jpg";"";151692;"";338;"image-keyboard-response";"";""
"340";18;"condition1";"D";"J";"";"";"";"0.0-6.0-3.81";"d";"372";"3";"M";"Press S if the two images were the same, Press D if the two images were different.";"";152065;"";339;"html-keyboard-response";"";""
"341";18;"condition1";"";"";"";"";"";"0.0-6.0-0.82";"";"";"0";"";"img2/false/13.jpg";"";152278;"";340;"image-keyboard-response";"";""
"342";18;"condition1";"";"";"";"";"";"0.0-6.0-1.82";"";"";"1";"";"+";"";152586;"";341;"html-keyboard-response";"";""
"343";18;"condition1";"";"";"";"";"";"0.0-6.0-2.82";"";"";"2";"";"img2/false/13.jpg";"";152798;"";342;"image-keyboard-response";"";""
"344";18;"condition1";"S";"M";"";"";"";"0.0-6.0-3.82";"d";"520";"3";"T";"Press S if the two images were the same, Press D if the two images were different.";"";153319;"";343;"html-keyboard-response";"";""
"345";18;"condition1";"";"";"";"";"";"0.0-6.0-0.83";"";"";"0";"";"img2/french/10.jpg";"";153526;"";344;"image-keyboard-response";"";""
"346";18;"condition1";"";"";"";"";"";"0.0-6.0-1.83";"";"";"1";"";"+";"";153828;"";345;"html-keyboard-response";"";""
"347";18;"condition1";"";"";"";"";"";"0.0-6.0-2.83";"";"";"2";"";"img2/french/12.jpg";"";154043;"";346;"image-keyboard-response";"";""
"348";18;"condition1";"D";"R";"";"";"";"0.0-6.0-3.83";"d";"1046";"3";"T";"Press S if the two images were the same, Press D if the two images were different.";"";155089;"";347;"html-keyboard-response";"";""
"349";18;"condition1";"";"";"";"";"";"0.0-6.0-0.84";"";"";"0";"";"img2/tools/13.jpg";"";155300;"";348;"image-keyboard-response";"";""
"350";18;"condition1";"";"";"";"";"";"0.0-6.0-1.84";"";"";"1";"";"+";"";155610;"";349;"html-keyboard-response";"";""
"351";18;"condition1";"";"";"";"";"";"0.0-6.0-2.84";"";"";"2";"";"img2/tools/11.jpg";"";155828;"";350;"image-keyboard-response";"";""
"352";18;"condition1";"D";"O";"";"";"";"0.0-6.0-3.84";"d";"466";"3";"T";"Press S if the two images were the same, Press D if the two images were different.";"";156294;"";351;"html-keyboard-response";"";""
"353";18;"condition1";"";"";"";"";"";"0.0-6.0-0.85";"";"";"0";"";"img2/jap/9.jpg";"";156508;"";352;"image-keyboard-response";"";""
"354";18;"condition1";"";"";"";"";"";"0.0-6.0-1.85";"";"";"1";"";"+";"";156821;"";353;"html-keyboard-response";"";""
"355";18;"condition1";"";"";"";"";"";"0.0-6.0-2.85";"";"";"2";"";"img2/Mjap/9.jpg";"";157036;"";354;"image-keyboard-response";"";""
"356";18;"condition1";"S";"J";"";"";"";"0.0-6.0-3.85";"s";"850";"3";"M";"Press S if the two images were the same, Press D if the two images were different.";"";157886;"";355;"html-keyboard-response";"";""
"357";18;"condition1";"";"";"";"";"";"0.0-6.0-0.86";"";"";"0";"";"img2/Mfrench/11.jpg";"";158108;"";356;"image-keyboard-response";"";""
"358";18;"condition1";"";"";"";"";"";"0.0-6.0-1.86";"";"";"1";"";"+";"";158421;"";357;"html-keyboard-response";"";""
"359";18;"condition1";"";"";"";"";"";"0.0-6.0-2.86";"";"";"2";"";"img2/Mfrench/6.jpg";"";158636;"";358;"image-keyboard-response";"";""
"360";18;"condition1";"D";"R";"";"";"";"0.0-6.0-3.86";"d";"497";"3";"M";"Press S if the two images were the same, Press D if the two images were different.";"";159134;"";359;"html-keyboard-response";"";""
"361";18;"condition1";"";"";"";"";"";"0.0-6.0-0.87";"";"";"0";"";"img2/faces/4.jpg";"";159343;"";360;"image-keyboard-response";"";""
"362";18;"condition1";"";"";"";"";"";"0.0-6.0-1.87";"";"";"1";"";"+";"";159650;"";361;"html-keyboard-response";"";""
"363";18;"condition1";"";"";"";"";"";"0.0-6.0-2.87";"";"";"2";"";"img2/faces/12.jpg";"";159865;"";362;"image-keyboard-response";"";""
"364";18;"condition1";"D";"H";"";"";"";"0.0-6.0-3.87";"d";"1149";"3";"T";"Press S if the two images were the same, Press D if the two images were different.";"";161014;"";363;"html-keyboard-response";"";""
"365";18;"condition1";"";"";"";"";"";"0.0-6.0-0.88";"";"";"0";"";"img2/jap/11.jpg";"";161224;"";364;"image-keyboard-response";"";""
"366";18;"condition1";"";"";"";"";"";"0.0-6.0-1.88";"";"";"1";"";"+";"";161530;"";365;"html-keyboard-response";"";""
"367";18;"condition1";"";"";"";"";"";"0.0-6.0-2.88";"";"";"2";"";"img2/Mjap/11.jpg";"";161746;"";366;"image-keyboard-response";"";""
"368";18;"condition1";"S";"J";"";"";"";"0.0-6.0-3.88";"s";"399";"3";"M";"Press S if the two images were the same, Press D if the two images were different.";"";162145;"";367;"html-keyboard-response";"";""
"369";18;"condition1";"";"";"";"";"";"0.0-6.0-0.89";"";"";"0";"";"img2/Mtools/10.jpg";"";162363;"";368;"image-keyboard-response";"";""
"370";18;"condition1";"";"";"";"";"";"0.0-6.0-1.89";"";"";"1";"";"+";"";162669;"";369;"html-keyboard-response";"";""
"371";18;"condition1";"";"";"";"";"";"0.0-6.0-2.89";"";"";"2";"";"img2/Mtools/12.jpg";"";162886;"";370;"image-keyboard-response";"";""
"372";18;"condition1";"D";"O";"";"";"";"0.0-6.0-3.89";"d";"1312";"3";"M";"Press S if the two images were the same, Press D if the two images were different.";"";164199;"";371;"html-keyboard-response";"";""
"373";18;"condition1";"";"";"";"";"";"0.0-6.0-0.90";"";"";"0";"";"img2/Mfrench/6.jpg";"";164405;"";372;"image-keyboard-response";"";""
"374";18;"condition1";"";"";"";"";"";"0.0-6.0-1.90";"";"";"1";"";"+";"";164713;"";373;"html-keyboard-response";"";""
"375";18;"condition1";"";"";"";"";"";"0.0-6.0-2.90";"";"";"2";"";"img2/Mfrench/14.jpg";"";164928;"";374;"image-keyboard-response";"";""
"376";18;"condition1";"D";"R";"";"";"";"0.0-6.0-3.90";"d";"511";"3";"M";"Press S if the two images were the same, Press D if the two images were different.";"";165439;"";375;"html-keyboard-response";"";""
"377";18;"condition1";"";"";"";"";"";"0.0-6.0-0.91";"";"";"0";"";"img2/Mjap/1.jpg";"";165656;"";376;"image-keyboard-response";"";""
"378";18;"condition1";"";"";"";"";"";"0.0-6.0-1.91";"";"";"1";"";"+";"";165965;"";377;"html-keyboard-response";"";""
"379";18;"condition1";"";"";"";"";"";"0.0-6.0-2.91";"";"";"2";"";"img2/Mjap/7.jpg";"";166166;"";378;"image-keyboard-response";"";""
"380";18;"condition1";"D";"J";"";"";"";"0.0-6.0-3.91";"d";"560";"3";"M";"Press S if the two images were the same, Press D if the two images were different.";"";166727;"";379;"html-keyboard-response";"";""
"381";18;"condition1";"";"";"";"";"";"0.0-6.0-0.92";"";"";"0";"";"img2/tools/7.jpg";"";166939;"";380;"image-keyboard-response";"";""
"382";18;"condition1";"";"";"";"";"";"0.0-6.0-1.92";"";"";"1";"";"+";"";167246;"";381;"html-keyboard-response";"";""
"383";18;"condition1";"";"";"";"";"";"0.0-6.0-2.92";"";"";"2";"";"img2/tools/7.jpg";"";167462;"";382;"image-keyboard-response";"";""
"384";18;"condition1";"S";"O";"";"";"";"0.0-6.0-3.92";"s";"455";"3";"T";"Press S if the two images were the same, Press D if the two images were different.";"";167918;"";383;"html-keyboard-response";"";""
"385";18;"condition1";"";"";"";"";"";"0.0-6.0-0.93";"";"";"0";"";"img2/faces/3.jpg";"";168137;"";384;"image-keyboard-response";"";""
"386";18;"condition1";"";"";"";"";"";"0.0-6.0-1.93";"";"";"1";"";"+";"";168445;"";385;"html-keyboard-response";"";""
"387";18;"condition1";"";"";"";"";"";"0.0-6.0-2.93";"";"";"2";"";"img2/faces/13.jpg";"";168660;"";386;"image-keyboard-response";"";""
"388";18;"condition1";"D";"H";"";"";"";"0.0-6.0-3.93";"d";"418";"3";"T";"Press S if the two images were the same, Press D if the two images were different.";"";169078;"";387;"html-keyboard-response";"";""
"389";18;"condition1";"";"";"";"";"";"0.0-6.0-0.94";"";"";"0";"";"img2/faces/3.jpg";"";169290;"";388;"image-keyboard-response";"";""
"390";18;"condition1";"";"";"";"";"";"0.0-6.0-1.94";"";"";"1";"";"+";"";169598;"";389;"html-keyboard-response";"";""
"391";18;"condition1";"";"";"";"";"";"0.0-6.0-2.94";"";"";"2";"";"img2/faces/3.jpg";"";169812;"";390;"image-keyboard-response";"";""
"392";18;"condition1";"S";"H";"";"";"";"0.0-6.0-3.94";"s";"378";"3";"T";"Press S if the two images were the same, Press D if the two images were different.";"";170191;"";391;"html-keyboard-response";"";""
"393";18;"condition1";"";"";"";"";"";"0.0-6.0-0.95";"";"";"0";"";"img2/false/12.jpg";"";170409;"";392;"image-keyboard-response";"";""
"394";18;"condition1";"";"";"";"";"";"0.0-6.0-1.95";"";"";"1";"";"+";"";170719;"";393;"html-keyboard-response";"";""
"395";18;"condition1";"";"";"";"";"";"0.0-6.0-2.95";"";"";"2";"";"img2/Mfalse/12.jpg";"";170936;"";394;"image-keyboard-response";"";""
"396";18;"condition1";"S";"M";"";"";"";"0.0-6.0-3.95";"d";"454";"3";"M";"Press S if the two images were the same, Press D if the two images were different.";"";171390;"";395;"html-keyboard-response";"";""
"397";18;"condition1";"";"";"";"";"";"0.0-6.0-0.96";"";"";"0";"";"img2/Mjap/11.jpg";"";171609;"";396;"image-keyboard-response";"";""
"398";18;"condition1";"";"";"";"";"";"0.0-6.0-1.96";"";"";"1";"";"+";"";171917;"";397;"html-keyboard-response";"";""
"399";18;"condition1";"";"";"";"";"";"0.0-6.0-2.96";"";"";"2";"";"img2/Mjap/6.jpg";"";172132;"";398;"image-keyboard-response";"";""
"400";18;"condition1";"D";"J";"";"";"";"0.0-6.0-3.96";"d";"461";"3";"M";"Press S if the two images were the same, Press D if the two images were different.";"";172593;"";399;"html-keyboard-response";"";""
"401";18;"condition1";"";"";"";"";"";"0.0-6.0-0.97";"";"";"0";"";"img2/faces/7.jpg";"";172796;"";400;"image-keyboard-response";"";""
"402";18;"condition1";"";"";"";"";"";"0.0-6.0-1.97";"";"";"1";"";"+";"";173106;"";401;"html-keyboard-response";"";""
"403";18;"condition1";"";"";"";"";"";"0.0-6.0-2.97";"";"";"2";"";"img2/faces/13.jpg";"";173322;"";402;"image-keyboard-response";"";""
"404";18;"condition1";"D";"H";"";"";"";"0.0-6.0-3.97";"d";"516";"3";"T";"Press S if the two images were the same, Press D if the two images were different.";"";173839;"";403;"html-keyboard-response";"";""
"405";18;"condition1";"";"";"";"";"";"0.0-6.0-0.98";"";"";"0";"";"img2/false/13.jpg";"";174047;"";404;"image-keyboard-response";"";""
"406";18;"condition1";"";"";"";"";"";"0.0-6.0-1.98";"";"";"1";"";"+";"";174353;"";405;"html-keyboard-response";"";""
"407";18;"condition1";"";"";"";"";"";"0.0-6.0-2.98";"";"";"2";"";"img2/false/11.jpg";"";174569;"";406;"image-keyboard-response";"";""
"408";18;"condition1";"D";"M";"";"";"";"0.0-6.0-3.98";"d";"452";"3";"T";"Press S if the two images were the same, Press D if the two images were different.";"";175022;"";407;"html-keyboard-response";"";""
"409";18;"condition1";"";"";"";"";"";"0.0-6.0-0.99";"";"";"0";"";"img2/french/4.jpg";"";175229;"";408;"image-keyboard-response";"";""
"410";18;"condition1";"";"";"";"";"";"0.0-6.0-1.99";"";"";"1";"";"+";"";175535;"";409;"html-keyboard-response";"";""
"411";18;"condition1";"";"";"";"";"";"0.0-6.0-2.99";"";"";"2";"";"img2/Mfrench/4.jpg";"";175751;"";410;"image-keyboard-response";"";""
"412";18;"condition1";"S";"R";"";"";"";"0.0-6.0-3.99";"d";"311";"3";"M";"Press S if the two images were the same, Press D if the two images were different.";"";176063;"";411;"html-keyboard-response";"";""
"413";18;"condition1";"";"";"";"";"";"0.0-6.0-0.100";"";"";"0";"";"img2/jap/10.jpg";"";176275;"";412;"image-keyboard-response";"";""
"414";18;"condition1";"";"";"";"";"";"0.0-6.0-1.100";"";"";"1";"";"+";"";176584;"";413;"html-keyboard-response";"";""
"415";18;"condition1";"";"";"";"";"";"0.0-6.0-2.100";"";"";"2";"";"img2/Mjap/10.jpg";"";176800;"";414;"image-keyboard-response";"";""
"416";18;"condition1";"S";"J";"";"";"";"0.0-6.0-3.100";"d";"543";"3";"M";"Press S if the two images were the same, Press D if the two images were different.";"";177344;"";415;"html-keyboard-response";"";""
"417";18;"condition1";"";"";"";"";"";"0.0-6.0-0.101";"";"";"0";"";"img2/french/2.jpg";"";177557;"";416;"image-keyboard-response";"";""
"418";18;"condition1";"";"";"";"";"";"0.0-6.0-1.101";"";"";"1";"";"+";"";177865;"";417;"html-keyboard-response";"";""
"419";18;"condition1";"";"";"";"";"";"0.0-6.0-2.101";"";"";"2";"";"img2/french/9.jpg";"";178081;"";418;"image-keyboard-response";"";""
"420";18;"condition1";"D";"R";"";"";"";"0.0-6.0-3.101";"d";"357";"3";"T";"Press S if the two images were the same, Press D if the two images were different.";"";178438;"";419;"html-keyboard-response";"";""
"421";18;"condition1";"";"";"";"";"";"0.0-6.0-0.102";"";"";"0";"";"img2/tools/1.jpg";"";178648;"";420;"image-keyboard-response";"";""
"422";18;"condition1";"";"";"";"";"";"0.0-6.0-1.102";"";"";"1";"";"+";"";178955;"";421;"html-keyboard-response";"";""
"423";18;"condition1";"";"";"";"";"";"0.0-6.0-2.102";"";"";"2";"";"img2/tools/7.jpg";"";179157;"";422;"image-keyboard-response";"";""
"424";18;"condition1";"D";"O";"";"";"";"0.0-6.0-3.102";"d";"345";"3";"T";"Press S if the two images were the same, Press D if the two images were different.";"";179503;"";423;"html-keyboard-response";"";""
"425";18;"condition1";"";"";"";"";"";"0.0-6.0-0.103";"";"";"0";"";"img2/french/11.jpg";"";179711;"";424;"image-keyboard-response";"";""
"426";18;"condition1";"";"";"";"";"";"0.0-6.0-1.103";"";"";"1";"";"+";"";180019;"";425;"html-keyboard-response";"";""
"427";18;"condition1";"";"";"";"";"";"0.0-6.0-2.103";"";"";"2";"";"img2/french/6.jpg";"";180234;"";426;"image-keyboard-response";"";""
"428";18;"condition1";"D";"R";"";"";"";"0.0-6.0-3.103";"d";"437";"3";"T";"Press S if the two images were the same, Press D if the two images were different.";"";180672;"";427;"html-keyboard-response";"";""
"429";18;"condition1";"";"";"";"";"";"0.0-6.0-0.104";"";"";"0";"";"img2/Mjap/5.jpg";"";180881;"";428;"image-keyboard-response";"";""
"430";18;"condition1";"";"";"";"";"";"0.0-6.0-1.104";"";"";"1";"";"+";"";181187;"";429;"html-keyboard-response";"";""
"431";18;"condition1";"";"";"";"";"";"0.0-6.0-2.104";"";"";"2";"";"img2/Mjap/12.jpg";"";181403;"";430;"image-keyboard-response";"";""
"432";18;"condition1";"D";"J";"";"";"";"0.0-6.0-3.104";"d";"355";"3";"M";"Press S if the two images were the same, Press D if the two images were different.";"";181758;"";431;"html-keyboard-response";"";""
"433";18;"condition1";"";"";"";"";"";"0.0-6.0-0.105";"";"";"0";"";"img2/Mfaces/3.jpg";"";181971;"";432;"image-keyboard-response";"";""
"434";18;"condition1";"";"";"";"";"";"0.0-6.0-1.105";"";"";"1";"";"+";"";182278;"";433;"html-keyboard-response";"";""
"435";18;"condition1";"";"";"";"";"";"0.0-6.0-2.105";"";"";"2";"";"img2/Mfaces/13.jpg";"";182494;"";434;"image-keyboard-response";"";""
"436";18;"condition1";"D";"H";"";"";"";"0.0-6.0-3.105";"d";"363";"3";"M";"Press S if the two images were the same, Press D if the two images were different.";"";182857;"";435;"html-keyboard-response";"";""
"437";18;"condition1";"";"";"";"";"";"0.0-6.0-0.106";"";"";"0";"";"img2/jap/5.jpg";"";183064;"";436;"image-keyboard-response";"";""
"438";18;"condition1";"";"";"";"";"";"0.0-6.0-1.106";"";"";"1";"";"+";"";183373;"";437;"html-keyboard-response";"";""
"439";18;"condition1";"";"";"";"";"";"0.0-6.0-2.106";"";"";"2";"";"img2/Mjap/5.jpg";"";183587;"";438;"image-keyboard-response";"";""
"440";18;"condition1";"S";"J";"";"";"";"0.0-6.0-3.106";"s";"443";"3";"M";"Press S if the two images were the same, Press D if the two images were different.";"";184030;"";439;"html-keyboard-response";"";""
"441";18;"condition1";"";"";"";"";"";"0.0-6.0-0.107";"";"";"0";"";"img2/jap/13.jpg";"";184252;"";440;"image-keyboard-response";"";""
"442";18;"condition1";"";"";"";"";"";"0.0-6.0-1.107";"";"";"1";"";"+";"";184558;"";441;"html-keyboard-response";"";""
"443";18;"condition1";"";"";"";"";"";"0.0-6.0-2.107";"";"";"2";"";"img2/jap/13.jpg";"";184774;"";442;"image-keyboard-response";"";""
"444";18;"condition1";"S";"J";"";"";"";"0.0-6.0-3.107";"s";"390";"3";"T";"Press S if the two images were the same, Press D if the two images were different.";"";185166;"";443;"html-keyboard-response";"";""
"445";18;"condition1";"";"";"";"";"";"0.0-6.0-0.108";"";"";"0";"";"img2/Mfaces/7.jpg";"";185371;"";444;"image-keyboard-response";"";""
"446";18;"condition1";"";"";"";"";"";"0.0-6.0-1.108";"";"";"1";"";"+";"";185679;"";445;"html-keyboard-response";"";""
"447";18;"condition1";"";"";"";"";"";"0.0-6.0-2.108";"";"";"2";"";"img2/Mfaces/13.jpg";"";185894;"";446;"image-keyboard-response";"";""
"448";18;"condition1";"D";"H";"";"";"";"0.0-6.0-3.108";"d";"384";"3";"M";"Press S if the two images were the same, Press D if the two images were different.";"";186278;"";447;"html-keyboard-response";"";""
"449";18;"condition1";"";"";"";"";"";"0.0-6.0-0.109";"";"";"0";"";"img2/faces/13.jpg";"";186493;"";448;"image-keyboard-response";"";""
"450";18;"condition1";"";"";"";"";"";"0.0-6.0-1.109";"";"";"1";"";"+";"";186802;"";449;"html-keyboard-response";"";""
"451";18;"condition1";"";"";"";"";"";"0.0-6.0-2.109";"";"";"2";"";"img2/faces/13.jpg";"";187014;"";450;"image-keyboard-response";"";""
"452";18;"condition1";"S";"H";"";"";"";"0.0-6.0-3.109";"s";"666";"3";"T";"Press S if the two images were the same, Press D if the two images were different.";"";187681;"";451;"html-keyboard-response";"";""
"453";18;"condition1";"";"";"";"";"";"0.0-6.0-0.110";"";"";"0";"";"img2/Mfrench/8.jpg";"";187892;"";452;"image-keyboard-response";"";""
"454";18;"condition1";"";"";"";"";"";"0.0-6.0-1.110";"";"";"1";"";"+";"";188199;"";453;"html-keyboard-response";"";""
"455";18;"condition1";"";"";"";"";"";"0.0-6.0-2.110";"";"";"2";"";"img2/Mfrench/9.jpg";"";188415;"";454;"image-keyboard-response";"";""
"456";18;"condition1";"D";"R";"";"";"";"0.0-6.0-3.110";"d";"1103";"3";"M";"Press S if the two images were the same, Press D if the two images were different.";"";189518;"";455;"html-keyboard-response";"";""
"457";18;"condition1";"";"";"";"";"";"0.0-6.0-0.111";"";"";"0";"";"img2/tools/9.jpg";"";189729;"";456;"image-keyboard-response";"";""
"458";18;"condition1";"";"";"";"";"";"0.0-6.0-1.111";"";"";"1";"";"+";"";190034;"";457;"html-keyboard-response";"";""
"459";18;"condition1";"";"";"";"";"";"0.0-6.0-2.111";"";"";"2";"";"img2/tools/12.jpg";"";190250;"";458;"image-keyboard-response";"";""
"460";18;"condition1";"D";"O";"";"";"";"0.0-6.0-3.111";"d";"604";"3";"T";"Press S if the two images were the same, Press D if the two images were different.";"";190854;"";459;"html-keyboard-response";"";""
"461";18;"condition1";"";"";"";"";"";"0.0-6.0-0.112";"";"";"0";"";"img2/faces/11.jpg";"";191068;"";460;"image-keyboard-response";"";""
"462";18;"condition1";"";"";"";"";"";"0.0-6.0-1.112";"";"";"1";"";"+";"";191376;"";461;"html-keyboard-response";"";""
"463";18;"condition1";"";"";"";"";"";"0.0-6.0-2.112";"";"";"2";"";"img2/faces/6.jpg";"";191590;"";462;"image-keyboard-response";"";""
"464";18;"condition1";"D";"H";"";"";"";"0.0-6.0-3.112";"d";"456";"3";"T";"Press S if the two images were the same, Press D if the two images were different.";"";192046;"";463;"html-keyboard-response";"";""
"465";18;"condition1";"";"";"";"";"";"0.0-6.0-0.113";"";"";"0";"";"img2/faces/13.jpg";"";192254;"";464;"image-keyboard-response";"";""
"466";18;"condition1";"";"";"";"";"";"0.0-6.0-1.113";"";"";"1";"";"+";"";192561;"";465;"html-keyboard-response";"";""
"467";18;"condition1";"";"";"";"";"";"0.0-6.0-2.113";"";"";"2";"";"img2/Mfaces/13.jpg";"";192776;"";466;"image-keyboard-response";"";""
"468";18;"condition1";"S";"H";"";"";"";"0.0-6.0-3.113";"d";"495";"3";"M";"Press S if the two images were the same, Press D if the two images were different.";"";193271;"";467;"html-keyboard-response";"";""
"469";18;"condition1";"";"";"";"";"";"0.0-6.0-0.114";"";"";"0";"";"img2/false/9.jpg";"";193482;"";468;"image-keyboard-response";"";""
"470";18;"condition1";"";"";"";"";"";"0.0-6.0-1.114";"";"";"1";"";"+";"";193790;"";469;"html-keyboard-response";"";""
"471";18;"condition1";"";"";"";"";"";"0.0-6.0-2.114";"";"";"2";"";"img2/false/12.jpg";"";194004;"";470;"image-keyboard-response";"";""
"472";18;"condition1";"D";"M";"";"";"";"0.0-6.0-3.114";"d";"474";"3";"T";"Press S if the two images were the same, Press D if the two images were different.";"";194478;"";471;"html-keyboard-response";"";""
"473";18;"condition1";"";"";"";"";"";"0.0-6.0-0.115";"";"";"0";"";"img2/Mtools/11.jpg";"";194698;"";472;"image-keyboard-response";"";""
"474";18;"condition1";"";"";"";"";"";"0.0-6.0-1.115";"";"";"1";"";"+";"";195007;"";473;"html-keyboard-response";"";""
"475";18;"condition1";"";"";"";"";"";"0.0-6.0-2.115";"";"";"2";"";"img2/Mtools/6.jpg";"";195223;"";474;"image-keyboard-response";"";""
"476";18;"condition1";"D";"O";"";"";"";"0.0-6.0-3.115";"d";"383";"3";"M";"Press S if the two images were the same, Press D if the two images were different.";"";195607;"";475;"html-keyboard-response";"";""
"477";18;"condition1";"";"";"";"";"";"0.0-6.0-0.116";"";"";"0";"";"img2/french/2.jpg";"";195820;"";476;"image-keyboard-response";"";""
"478";18;"condition1";"";"";"";"";"";"0.0-6.0-1.116";"";"";"1";"";"+";"";196127;"";477;"html-keyboard-response";"";""
"479";18;"condition1";"";"";"";"";"";"0.0-6.0-2.116";"";"";"2";"";"img2/french/2.jpg";"";196340;"";478;"image-keyboard-response";"";""
"480";18;"condition1";"S";"R";"";"";"";"0.0-6.0-3.116";"s";"419";"3";"T";"Press S if the two images were the same, Press D if the two images were different.";"";196760;"";479;"html-keyboard-response";"";""
"481";18;"condition1";"";"";"";"";"";"0.0-6.0-0.117";"";"";"0";"";"img2/french/4.jpg";"";196972;"";480;"image-keyboard-response";"";""
"482";18;"condition1";"";"";"";"";"";"0.0-6.0-1.117";"";"";"1";"";"+";"";197282;"";481;"html-keyboard-response";"";""
"483";18;"condition1";"";"";"";"";"";"0.0-6.0-2.117";"";"";"2";"";"img2/french/4.jpg";"";197498;"";482;"image-keyboard-response";"";""
"484";18;"condition1";"S";"R";"";"";"";"0.0-6.0-3.117";"s";"327";"3";"T";"Press S if the two images were the same, Press D if the two images were different.";"";197825;"";483;"html-keyboard-response";"";""
"485";18;"condition1";"";"";"";"";"";"0.0-6.0-0.118";"";"";"0";"";"img2/Mfaces/14.jpg";"";198036;"";484;"image-keyboard-response";"";""
"486";18;"condition1";"";"";"";"";"";"0.0-6.0-1.118";"";"";"1";"";"+";"";198346;"";485;"html-keyboard-response";"";""
"487";18;"condition1";"";"";"";"";"";"0.0-6.0-2.118";"";"";"2";"";"img2/Mfaces/13.jpg";"";198560;"";486;"image-keyboard-response";"";""
"488";18;"condition1";"D";"H";"";"";"";"0.0-6.0-3.118";"d";"374";"3";"M";"Press S if the two images were the same, Press D if the two images were different.";"";198934;"";487;"html-keyboard-response";"";""
"489";18;"condition1";"";"";"";"";"";"0.0-6.0-0.119";"";"";"0";"";"img2/Mtools/4.jpg";"";199154;"";488;"image-keyboard-response";"";""
"490";18;"condition1";"";"";"";"";"";"0.0-6.0-1.119";"";"";"1";"";"+";"";199475;"";489;"html-keyboard-response";"";""
"491";18;"condition1";"";"";"";"";"";"0.0-6.0-2.119";"";"";"2";"";"img2/Mtools/12.jpg";"";199678;"";490;"image-keyboard-response";"";""
"492";18;"condition1";"D";"O";"";"";"";"0.0-6.0-3.119";"d";"473";"3";"M";"Press S if the two images were the same, Press D if the two images were different.";"";200151;"";491;"html-keyboard-response";"";""
"493";18;"condition1";"";"";"";"";"";"0.0-6.0-0.120";"";"";"0";"";"img2/tools/1.jpg";"";200371;"";492;"image-keyboard-response";"";""
"494";18;"condition1";"";"";"";"";"";"0.0-6.0-1.120";"";"";"1";"";"+";"";200679;"";493;"html-keyboard-response";"";""
"495";18;"condition1";"";"";"";"";"";"0.0-6.0-2.120";"";"";"2";"";"img2/tools/1.jpg";"";200898;"";494;"image-keyboard-response";"";""
"496";18;"condition1";"S";"O";"";"";"";"0.0-6.0-3.120";"s";"420";"3";"T";"Press S if the two images were the same, Press D if the two images were different.";"";201318;"";495;"html-keyboard-response";"";""
"497";18;"condition1";"";"";"";"";"";"0.0-6.0-0.121";"";"";"0";"";"img2/jap/7.jpg";"";201528;"";496;"image-keyboard-response";"";""
"498";18;"condition1";"";"";"";"";"";"0.0-6.0-1.121";"";"";"1";"";"+";"";201837;"";497;"html-keyboard-response";"";""
"499";18;"condition1";"";"";"";"";"";"0.0-6.0-2.121";"";"";"2";"";"img2/jap/13.jpg";"";202049;"";498;"image-keyboard-response";"";""
"500";18;"condition1";"D";"J";"";"";"";"0.0-6.0-3.121";"d";"652";"3";"T";"Press S if the two images were the same, Press D if the two images were different.";"";202702;"";499;"html-keyboard-response";"";""
"501";18;"condition1";"";"";"";"";"";"0.0-6.0-0.122";"";"";"0";"";"img2/false/2.jpg";"";202911;"";500;"image-keyboard-response";"";""
"502";18;"condition1";"";"";"";"";"";"0.0-6.0-1.122";"";"";"1";"";"+";"";203216;"";501;"html-keyboard-response";"";""
"503";18;"condition1";"";"";"";"";"";"0.0-6.0-2.122";"";"";"2";"";"img2/false/9.jpg";"";203431;"";502;"image-keyboard-response";"";""
"504";18;"condition1";"D";"M";"";"";"";"0.0-6.0-3.122";"d";"443";"3";"T";"Press S if the two images were the same, Press D if the two images were different.";"";203874;"";503;"html-keyboard-response";"";""
"505";18;"condition1";"";"";"";"";"";"0.0-6.0-0.123";"";"";"0";"";"img2/french/8.jpg";"";204091;"";504;"image-keyboard-response";"";""
"506";18;"condition1";"";"";"";"";"";"0.0-6.0-1.123";"";"";"1";"";"+";"";204398;"";505;"html-keyboard-response";"";""
"507";18;"condition1";"";"";"";"";"";"0.0-6.0-2.123";"";"";"2";"";"img2/french/9.jpg";"";204612;"";506;"image-keyboard-response";"";""
"508";18;"condition1";"D";"R";"";"";"";"0.0-6.0-3.123";"d";"361";"3";"T";"Press S if the two images were the same, Press D if the two images were different.";"";204974;"";507;"html-keyboard-response";"";""
"509";18;"condition1";"";"";"";"";"";"0.0-6.0-0.124";"";"";"0";"";"img2/Mfaces/4.jpg";"";205183;"";508;"image-keyboard-response";"";""
"510";18;"condition1";"";"";"";"";"";"0.0-6.0-1.124";"";"";"1";"";"+";"";205487;"";509;"html-keyboard-response";"";""
"511";18;"condition1";"";"";"";"";"";"0.0-6.0-2.124";"";"";"2";"";"img2/Mfaces/12.jpg";"";205700;"";510;"image-keyboard-response";"";""
"512";18;"condition1";"D";"H";"";"";"";"0.0-6.0-3.124";"d";"372";"3";"M";"Press S if the two images were the same, Press D if the two images were different.";"";206073;"";511;"html-keyboard-response";"";""
"513";18;"condition1";"";"";"";"";"";"0.0-6.0-0.125";"";"";"0";"";"img2/Mfrench/1.jpg";"";206290;"";512;"image-keyboard-response";"";""
"514";18;"condition1";"";"";"";"";"";"0.0-6.0-1.125";"";"";"1";"";"+";"";206597;"";513;"html-keyboard-response";"";""
"515";18;"condition1";"";"";"";"";"";"0.0-6.0-2.125";"";"";"2";"";"img2/Mfrench/7.jpg";"";206813;"";514;"image-keyboard-response";"";""
"516";18;"condition1";"D";"R";"";"";"";"0.0-6.0-3.125";"d";"458";"3";"M";"Press S if the two images were the same, Press D if the two images were different.";"";207271;"";515;"html-keyboard-response";"";""
"517";18;"condition1";"";"";"";"";"";"0.0-6.0-0.126";"";"";"0";"";"img2/jap/2.jpg";"";207490;"";516;"image-keyboard-response";"";""
"518";18;"condition1";"";"";"";"";"";"0.0-6.0-1.126";"";"";"1";"";"+";"";207797;"";517;"html-keyboard-response";"";""
"519";18;"condition1";"";"";"";"";"";"0.0-6.0-2.126";"";"";"2";"";"img2/jap/9.jpg";"";208014;"";518;"image-keyboard-response";"";""
"520";18;"condition1";"D";"J";"";"";"";"0.0-6.0-3.126";"d";"360";"3";"T";"Press S if the two images were the same, Press D if the two images were different.";"";208375;"";519;"html-keyboard-response";"";""
"521";18;"condition1";"";"";"";"";"";"0.0-6.0-0.127";"";"";"0";"";"img2/false/7.jpg";"";208587;"";520;"image-keyboard-response";"";""
"522";18;"condition1";"";"";"";"";"";"0.0-6.0-1.127";"";"";"1";"";"+";"";208895;"";521;"html-keyboard-response";"";""
"523";18;"condition1";"";"";"";"";"";"0.0-6.0-2.127";"";"";"2";"";"img2/Mfalse/7.jpg";"";209112;"";522;"image-keyboard-response";"";""
"524";18;"condition1";"S";"M";"";"";"";"0.0-6.0-3.127";"d";"550";"3";"M";"Press S if the two images were the same, Press D if the two images were different.";"";209662;"";523;"html-keyboard-response";"";""
"525";18;"condition1";"";"";"";"";"";"0.0-6.0-0.128";"";"";"0";"";"img2/false/4.jpg";"";209869;"";524;"image-keyboard-response";"";""
"526";18;"condition1";"";"";"";"";"";"0.0-6.0-1.128";"";"";"1";"";"+";"";210175;"";525;"html-keyboard-response";"";""
"527";18;"condition1";"";"";"";"";"";"0.0-6.0-2.128";"";"";"2";"";"img2/Mfalse/4.jpg";"";210391;"";526;"image-keyboard-response";"";""
"528";18;"condition1";"S";"M";"";"";"";"0.0-6.0-3.128";"d";"423";"3";"M";"Press S if the two images were the same, Press D if the two images were different.";"";210814;"";527;"html-keyboard-response";"";""
"529";18;"condition1";"";"";"";"";"";"0.0-6.0-0.129";"";"";"0";"";"img2/french/8.jpg";"";211023;"";528;"image-keyboard-response";"";""
"530";18;"condition1";"";"";"";"";"";"0.0-6.0-1.129";"";"";"1";"";"+";"";211330;"";529;"html-keyboard-response";"";""
"531";18;"condition1";"";"";"";"";"";"0.0-6.0-2.129";"";"";"2";"";"img2/Mfrench/8.jpg";"";211546;"";530;"image-keyboard-response";"";""
"532";18;"condition1";"S";"R";"";"";"";"0.0-6.0-3.129";"d";"379";"3";"M";"Press S if the two images were the same, Press D if the two images were different.";"";211926;"";531;"html-keyboard-response";"";""
"533";18;"condition1";"";"";"";"";"";"0.0-6.0-0.130";"";"";"0";"";"img2/french/6.jpg";"";212133;"";532;"image-keyboard-response";"";""
"534";18;"condition1";"";"";"";"";"";"0.0-6.0-1.130";"";"";"1";"";"+";"";212442;"";533;"html-keyboard-response";"";""
"535";18;"condition1";"";"";"";"";"";"0.0-6.0-2.130";"";"";"2";"";"img2/Mfrench/6.jpg";"";212653;"";534;"image-keyboard-response";"";""
"536";18;"condition1";"S";"R";"";"";"";"0.0-6.0-3.130";"d";"474";"3";"M";"Press S if the two images were the same, Press D if the two images were different.";"";213127;"";535;"html-keyboard-response";"";""
"537";18;"condition1";"";"";"";"";"";"0.0-6.0-0.131";"";"";"0";"";"img2/jap/5.jpg";"";213335;"";536;"image-keyboard-response";"";""
"538";18;"condition1";"";"";"";"";"";"0.0-6.0-1.131";"";"";"1";"";"+";"";213640;"";537;"html-keyboard-response";"";""
"539";18;"condition1";"";"";"";"";"";"0.0-6.0-2.131";"";"";"2";"";"img2/jap/5.jpg";"";213858;"";538;"image-keyboard-response";"";""
"540";18;"condition1";"S";"J";"";"";"";"0.0-6.0-3.131";"s";"277";"3";"T";"Press S if the two images were the same, Press D if the two images were different.";"";214135;"";539;"html-keyboard-response";"";""
"541";18;"condition1";"";"";"";"";"";"0.0-6.0-0.132";"";"";"0";"";"img2/false/6.jpg";"";214345;"";540;"image-keyboard-response";"";""
"542";18;"condition1";"";"";"";"";"";"0.0-6.0-1.132";"";"";"1";"";"+";"";214656;"";541;"html-keyboard-response";"";""
"543";18;"condition1";"";"";"";"";"";"0.0-6.0-2.132";"";"";"2";"";"img2/false/6.jpg";"";214872;"";542;"image-keyboard-response";"";""
"544";18;"condition1";"S";"M";"";"";"";"0.0-6.0-3.132";"d";"494";"3";"T";"Press S if the two images were the same, Press D if the two images were different.";"";215366;"";543;"html-keyboard-response";"";""
"545";18;"condition1";"";"";"";"";"";"0.0-6.0-0.133";"";"";"0";"";"img2/tools/2.jpg";"";215569;"";544;"image-keyboard-response";"";""
"546";18;"condition1";"";"";"";"";"";"0.0-6.0-1.133";"";"";"1";"";"+";"";215877;"";545;"html-keyboard-response";"";""
"547";18;"condition1";"";"";"";"";"";"0.0-6.0-2.133";"";"";"2";"";"img2/tools/2.jpg";"";216094;"";546;"image-keyboard-response";"";""
"548";18;"condition1";"S";"O";"";"";"";"0.0-6.0-3.133";"s";"480";"3";"T";"Press S if the two images were the same, Press D if the two images were different.";"";216575;"";547;"html-keyboard-response";"";""
"549";18;"condition1";"";"";"";"";"";"0.0-6.0-0.134";"";"";"0";"";"img2/Mfaces/10.jpg";"";216793;"";548;"image-keyboard-response";"";""
"550";18;"condition1";"";"";"";"";"";"0.0-6.0-1.134";"";"";"1";"";"+";"";217105;"";549;"html-keyboard-response";"";""
"551";18;"condition1";"";"";"";"";"";"0.0-6.0-2.134";"";"";"2";"";"img2/Mfaces/12.jpg";"";217320;"";550;"image-keyboard-response";"";""
"552";18;"condition1";"D";"H";"";"";"";"0.0-6.0-3.134";"d";"463";"3";"M";"Press S if the two images were the same, Press D if the two images were different.";"";217783;"";551;"html-keyboard-response";"";""
"553";18;"condition1";"";"";"";"";"";"0.0-6.0-0.135";"";"";"0";"";"img2/jap/10.jpg";"";218000;"";552;"image-keyboard-response";"";""
"554";18;"condition1";"";"";"";"";"";"0.0-6.0-1.135";"";"";"1";"";"+";"";218322;"";553;"html-keyboard-response";"";""
"555";18;"condition1";"";"";"";"";"";"0.0-6.0-2.135";"";"";"2";"";"img2/jap/12.jpg";"";218537;"";554;"image-keyboard-response";"";""
"556";18;"condition1";"D";"J";"";"";"";"0.0-6.0-3.135";"d";"558";"3";"T";"Press S if the two images were the same, Press D if the two images were different.";"";219096;"";555;"html-keyboard-response";"";""
"557";18;"condition1";"";"";"";"";"";"0.0-6.0-0.136";"";"";"0";"";"img2/jap/12.jpg";"";219322;"";556;"image-keyboard-response";"";""
"558";18;"condition1";"";"";"";"";"";"0.0-6.0-1.136";"";"";"1";"";"+";"";219630;"";557;"html-keyboard-response";"";""
"559";18;"condition1";"";"";"";"";"";"0.0-6.0-2.136";"";"";"2";"";"img2/jap/12.jpg";"";219845;"";558;"image-keyboard-response";"";""
"560";18;"condition1";"S";"J";"";"";"";"0.0-6.0-3.136";"s";"466";"3";"T";"Press S if the two images were the same, Press D if the two images were different.";"";220311;"";559;"html-keyboard-response";"";""
"561";18;"condition1";"";"";"";"";"";"0.0-6.0-0.137";"";"";"0";"";"img2/Mfalse/5.jpg";"";220521;"";560;"image-keyboard-response";"";""
"562";18;"condition1";"";"";"";"";"";"0.0-6.0-1.137";"";"";"1";"";"+";"";220828;"";561;"html-keyboard-response";"";""
"563";18;"condition1";"";"";"";"";"";"0.0-6.0-2.137";"";"";"2";"";"img2/Mfalse/12.jpg";"";221046;"";562;"image-keyboard-response";"";""
"564";18;"condition1";"D";"M";"";"";"";"0.0-6.0-3.137";"d";"679";"3";"M";"Press S if the two images were the same, Press D if the two images were different.";"";221726;"";563;"html-keyboard-response";"";""
"565";18;"condition1";"";"";"";"";"";"0.0-6.0-0.138";"";"";"0";"";"img2/false/5.jpg";"";221937;"";564;"image-keyboard-response";"";""
"566";18;"condition1";"";"";"";"";"";"0.0-6.0-1.138";"";"";"1";"";"+";"";222243;"";565;"html-keyboard-response";"";""
"567";18;"condition1";"";"";"";"";"";"0.0-6.0-2.138";"";"";"2";"";"img2/Mfalse/5.jpg";"";222458;"";566;"image-keyboard-response";"";""
"568";18;"condition1";"S";"M";"";"";"";"0.0-6.0-3.138";"d";"763";"3";"M";"Press S if the two images were the same, Press D if the two images were different.";"";223222;"";567;"html-keyboard-response";"";""
"569";18;"condition1";"";"";"";"";"";"0.0-6.0-0.139";"";"";"0";"";"img2/false/6.jpg";"";223430;"";568;"image-keyboard-response";"";""
"570";18;"condition1";"";"";"";"";"";"0.0-6.0-1.139";"";"";"1";"";"+";"";223742;"";569;"html-keyboard-response";"";""
"571";18;"condition1";"";"";"";"";"";"0.0-6.0-2.139";"";"";"2";"";"img2/false/14.jpg";"";223957;"";570;"image-keyboard-response";"";""
"572";18;"condition1";"D";"M";"";"";"";"0.0-6.0-3.139";"d";"717";"3";"T";"Press S if the two images were the same, Press D if the two images were different.";"";224674;"";571;"html-keyboard-response";"";""
"573";18;"condition1";"";"";"";"";"";"0.0-6.0-0.140";"";"";"0";"";"img2/tools/12.jpg";"";224879;"";572;"image-keyboard-response";"";""
"574";18;"condition1";"";"";"";"";"";"0.0-6.0-1.140";"";"";"1";"";"+";"";225183;"";573;"html-keyboard-response";"";""
"575";18;"condition1";"";"";"";"";"";"0.0-6.0-2.140";"";"";"2";"";"img2/tools/8.jpg";"";225398;"";574;"image-keyboard-response";"";""
"576";18;"condition1";"D";"O";"";"";"";"0.0-6.0-3.140";"d";"544";"3";"T";"Press S if the two images were the same, Press D if the two images were different.";"";225942;"";575;"html-keyboard-response";"";""
"577";18;"condition1";"";"";"";"";"";"0.0-6.0-0.141";"";"";"0";"";"img2/jap/12.jpg";"";226150;"";576;"image-keyboard-response";"";""
"578";18;"condition1";"";"";"";"";"";"0.0-6.0-1.141";"";"";"1";"";"+";"";226459;"";577;"html-keyboard-response";"";""
"579";18;"condition1";"";"";"";"";"";"0.0-6.0-2.141";"";"";"2";"";"img2/Mjap/12.jpg";"";226677;"";578;"image-keyboard-response";"";""
"580";18;"condition1";"S";"J";"";"";"";"0.0-6.0-3.141";"s";"481";"3";"M";"Press S if the two images were the same, Press D if the two images were different.";"";227159;"";579;"html-keyboard-response";"";""
"581";18;"condition1";"";"";"";"";"";"0.0-6.0-0.142";"";"";"0";"";"img2/jap/8.jpg";"";227370;"";580;"image-keyboard-response";"";""
"582";18;"condition1";"";"";"";"";"";"0.0-6.0-1.142";"";"";"1";"";"+";"";227680;"";581;"html-keyboard-response";"";""
"583";18;"condition1";"";"";"";"";"";"0.0-6.0-2.142";"";"";"2";"";"img2/jap/8.jpg";"";227896;"";582;"image-keyboard-response";"";""
"584";18;"condition1";"S";"J";"";"";"";"0.0-6.0-3.142";"s";"502";"3";"T";"Press S if the two images were the same, Press D if the two images were different.";"";228398;"";583;"html-keyboard-response";"";""
"585";18;"condition1";"";"";"";"";"";"0.0-6.0-0.143";"";"";"0";"";"img2/faces/3.jpg";"";228605;"";584;"image-keyboard-response";"";""
"586";18;"condition1";"";"";"";"";"";"0.0-6.0-1.143";"";"";"1";"";"+";"";228915;"";585;"html-keyboard-response";"";""
"587";18;"condition1";"";"";"";"";"";"0.0-6.0-2.143";"";"";"2";"";"img2/Mfaces/3.jpg";"";229133;"";586;"image-keyboard-response";"";""
"588";18;"condition1";"S";"H";"";"";"";"0.0-6.0-3.143";"d";"2939";"3";"M";"Press S if the two images were the same, Press D if the two images were different.";"";232073;"";587;"html-keyboard-response";"";""
"589";18;"condition1";"";"";"";"";"";"0.0-6.0-0.144";"";"";"0";"";"img2/false/4.jpg";"";232286;"";588;"image-keyboard-response";"";""
"590";18;"condition1";"";"";"";"";"";"0.0-6.0-1.144";"";"";"1";"";"+";"";232598;"";589;"html-keyboard-response";"";""
"591";18;"condition1";"";"";"";"";"";"0.0-6.0-2.144";"";"";"2";"";"img2/false/12.jpg";"";232812;"";590;"image-keyboard-response";"";""
"592";18;"condition1";"D";"M";"";"";"";"0.0-6.0-3.144";"d";"1027";"3";"T";"Press S if the two images were the same, Press D if the two images were different.";"";233839;"";591;"html-keyboard-response";"";""
"593";18;"condition1";"";"";"";"";"";"0.0-6.0-0.145";"";"";"0";"";"img2/Mfaces/5.jpg";"";234059;"";592;"image-keyboard-response";"";""
"594";18;"condition1";"";"";"";"";"";"0.0-6.0-1.145";"";"";"1";"";"+";"";234366;"";593;"html-keyboard-response";"";""
"595";18;"condition1";"";"";"";"";"";"0.0-6.0-2.145";"";"";"2";"";"img2/Mfaces/12.jpg";"";234568;"";594;"image-keyboard-response";"";""
"596";18;"condition1";"D";"H";"";"";"";"0.0-6.0-3.145";"d";"703";"3";"M";"Press S if the two images were the same, Press D if the two images were different.";"";235271;"";595;"html-keyboard-response";"";""
"597";18;"condition1";"";"";"";"";"";"0.0-6.0-0.146";"";"";"0";"";"img2/faces/6.jpg";"";235488;"";596;"image-keyboard-response";"";""
"598";18;"condition1";"";"";"";"";"";"0.0-6.0-1.146";"";"";"1";"";"+";"";235798;"";597;"html-keyboard-response";"";""
"599";18;"condition1";"";"";"";"";"";"0.0-6.0-2.146";"";"";"2";"";"img2/faces/6.jpg";"";236012;"";598;"image-keyboard-response";"";""
"600";18;"condition1";"S";"H";"";"";"";"0.0-6.0-3.146";"s";"273";"3";"T";"Press S if the two images were the same, Press D if the two images were different.";"";236286;"";599;"html-keyboard-response";"";""
"601";18;"condition1";"";"";"";"";"";"0.0-6.0-0.147";"";"";"0";"";"img2/false/10.jpg";"";236502;"";600;"image-keyboard-response";"";""
"602";18;"condition1";"";"";"";"";"";"0.0-6.0-1.147";"";"";"1";"";"+";"";236811;"";601;"html-keyboard-response";"";""
"603";18;"condition1";"";"";"";"";"";"0.0-6.0-2.147";"";"";"2";"";"img2/Mfalse/10.jpg";"";237026;"";602;"image-keyboard-response";"";""
"604";18;"condition1";"S";"M";"";"";"";"0.0-6.0-3.147";"d";"956";"3";"M";"Press S if the two images were the same, Press D if the two images were different.";"";237982;"";603;"html-keyboard-response";"";""
"605";18;"condition1";"";"";"";"";"";"0.0-6.0-0.148";"";"";"0";"";"img2/false/9.jpg";"";238192;"";604;"image-keyboard-response";"";""
"606";18;"condition1";"";"";"";"";"";"0.0-6.0-1.148";"";"";"1";"";"+";"";238499;"";605;"html-keyboard-response";"";""
"607";18;"condition1";"";"";"";"";"";"0.0-6.0-2.148";"";"";"2";"";"img2/false/9.jpg";"";238713;"";606;"image-keyboard-response";"";""
"608";18;"condition1";"S";"M";"";"";"";"0.0-6.0-3.148";"d";"3357";"3";"T";"Press S if the two images were the same, Press D if the two images were different.";"";242070;"";607;"html-keyboard-response";"";""
"609";18;"condition1";"";"";"";"";"";"0.0-6.0-0.149";"";"";"0";"";"img2/false/3.jpg";"";242278;"";608;"image-keyboard-response";"";""
"610";18;"condition1";"";"";"";"";"";"0.0-6.0-1.149";"";"";"1";"";"+";"";242584;"";609;"html-keyboard-response";"";""
"611";18;"condition1";"";"";"";"";"";"0.0-6.0-2.149";"";"";"2";"";"img2/false/3.jpg";"";242795;"";610;"image-keyboard-response";"";""
"612";18;"condition1";"S";"M";"";"";"";"0.0-6.0-3.149";"s";"394";"3";"T";"Press S if the two images were the same, Press D if the two images were different.";"";243189;"";611;"html-keyboard-response";"";""
"613";18;"condition1";"";"";"";"";"";"0.0-6.0-0.150";"";"";"0";"";"img2/Mfaces/8.jpg";"";243406;"";612;"image-keyboard-response";"";""
"614";18;"condition1";"";"";"";"";"";"0.0-6.0-1.150";"";"";"1";"";"+";"";243712;"";613;"html-keyboard-response";"";""
"615";18;"condition1";"";"";"";"";"";"0.0-6.0-2.150";"";"";"2";"";"img2/Mfaces/9.jpg";"";243926;"";614;"image-keyboard-response";"";""
"616";18;"condition1";"D";"H";"";"";"";"0.0-6.0-3.150";"d";"5048";"3";"M";"Press S if the two images were the same, Press D if the two images were different.";"";248975;"";615;"html-keyboard-response";"";""
"617";18;"condition1";"";"";"";"";"";"0.0-6.0-0.151";"";"";"0";"";"img2/Mfrench/2.jpg";"";249190;"";616;"image-keyboard-response";"";""
"618";18;"condition1";"";"";"";"";"";"0.0-6.0-1.151";"";"";"1";"";"+";"";249497;"";617;"html-keyboard-response";"";""
"619";18;"condition1";"";"";"";"";"";"0.0-6.0-2.151";"";"";"2";"";"img2/Mfrench/9.jpg";"";249709;"";618;"image-keyboard-response";"";""
"620";18;"condition1";"D";"R";"";"";"";"0.0-6.0-3.151";"d";"607";"3";"M";"Press S if the two images were the same, Press D if the two images were different.";"";250317;"";619;"html-keyboard-response";"";""
"621";18;"condition1";"";"";"";"";"";"0.0-6.0-0.152";"";"";"0";"";"img2/jap/3.jpg";"";250528;"";620;"image-keyboard-response";"";""
"622";18;"condition1";"";"";"";"";"";"0.0-6.0-1.152";"";"";"1";"";"+";"";250834;"";621;"html-keyboard-response";"";""
"623";18;"condition1";"";"";"";"";"";"0.0-6.0-2.152";"";"";"2";"";"img2/jap/13.jpg";"";251051;"";622;"image-keyboard-response";"";""
"624";18;"condition1";"D";"J";"";"";"";"0.0-6.0-3.152";"d";"434";"3";"T";"Press S if the two images were the same, Press D if the two images were different.";"";251486;"";623;"html-keyboard-response";"";""
"625";18;"condition1";"";"";"";"";"";"0.0-6.0-0.153";"";"";"0";"";"img2/french/8.jpg";"";251700;"";624;"image-keyboard-response";"";""
"626";18;"condition1";"";"";"";"";"";"0.0-6.0-1.153";"";"";"1";"";"+";"";252008;"";625;"html-keyboard-response";"";""
"627";18;"condition1";"";"";"";"";"";"0.0-6.0-2.153";"";"";"2";"";"img2/french/8.jpg";"";252224;"";626;"image-keyboard-response";"";""
"628";18;"condition1";"S";"R";"";"";"";"0.0-6.0-3.153";"s";"325";"3";"T";"Press S if the two images were the same, Press D if the two images were different.";"";252550;"";627;"html-keyboard-response";"";""
"629";18;"condition1";"";"";"";"";"";"0.0-6.0-0.154";"";"";"0";"";"img2/false/5.jpg";"";252768;"";628;"image-keyboard-response";"";""
"630";18;"condition1";"";"";"";"";"";"0.0-6.0-1.154";"";"";"1";"";"+";"";253090;"";629;"html-keyboard-response";"";""
"631";18;"condition1";"";"";"";"";"";"0.0-6.0-2.154";"";"";"2";"";"img2/false/5.jpg";"";253305;"";630;"image-keyboard-response";"";""
"632";18;"condition1";"S";"M";"";"";"";"0.0-6.0-3.154";"d";"1996";"3";"T";"Press S if the two images were the same, Press D if the two images were different.";"";255302;"";631;"html-keyboard-response";"";""
"633";18;"condition1";"";"";"";"";"";"0.0-6.0-0.155";"";"";"0";"";"img2/false/10.jpg";"";255509;"";632;"image-keyboard-response";"";""
"634";18;"condition1";"";"";"";"";"";"0.0-6.0-1.155";"";"";"1";"";"+";"";255816;"";633;"html-keyboard-response";"";""
"635";18;"condition1";"";"";"";"";"";"0.0-6.0-2.155";"";"";"2";"";"img2/false/12.jpg";"";256033;"";634;"image-keyboard-response";"";""
"636";18;"condition1";"D";"M";"";"";"";"0.0-6.0-3.155";"d";"565";"3";"T";"Press S if the two images were the same, Press D if the two images were different.";"";256598;"";635;"html-keyboard-response";"";""
"637";18;"condition1";"";"";"";"";"";"0.0-6.0-0.156";"";"";"0";"";"img2/jap/9.jpg";"";256816;"";636;"image-keyboard-response";"";""
"638";18;"condition1";"";"";"";"";"";"0.0-6.0-1.156";"";"";"1";"";"+";"";257128;"";637;"html-keyboard-response";"";""
"639";18;"condition1";"";"";"";"";"";"0.0-6.0-2.156";"";"";"2";"";"img2/jap/12.jpg";"";257328;"";638;"image-keyboard-response";"";""
"640";18;"condition1";"D";"J";"";"";"";"0.0-6.0-3.156";"d";"485";"3";"T";"Press S if the two images were the same, Press D if the two images were different.";"";257814;"";639;"html-keyboard-response";"";""
"641";18;"condition1";"";"";"";"";"";"0.0-6.0-0.157";"";"";"0";"";"img2/false/6.jpg";"";258026;"";640;"image-keyboard-response";"";""
"642";18;"condition1";"";"";"";"";"";"0.0-6.0-1.157";"";"";"1";"";"+";"";258333;"";641;"html-keyboard-response";"";""
"643";18;"condition1";"";"";"";"";"";"0.0-6.0-2.157";"";"";"2";"";"img2/Mfalse/6.jpg";"";258551;"";642;"image-keyboard-response";"";""
"644";18;"condition1";"S";"M";"";"";"";"0.0-6.0-3.157";"d";"554";"3";"M";"Press S if the two images were the same, Press D if the two images were different.";"";259105;"";643;"html-keyboard-response";"";""
"645";18;"condition1";"";"";"";"";"";"0.0-6.0-0.158";"";"";"0";"";"img2/false/14.jpg";"";259318;"";644;"image-keyboard-response";"";""
"646";18;"condition1";"";"";"";"";"";"0.0-6.0-1.158";"";"";"1";"";"+";"";259625;"";645;"html-keyboard-response";"";""
"647";18;"condition1";"";"";"";"";"";"0.0-6.0-2.158";"";"";"2";"";"img2/false/13.jpg";"";259841;"";646;"image-keyboard-response";"";""
"648";18;"condition1";"D";"M";"";"";"";"0.0-6.0-3.158";"d";"404";"3";"T";"Press S if the two images were the same, Press D if the two images were different.";"";260246;"";647;"html-keyboard-response";"";""
"649";18;"condition1";"";"";"";"";"";"0.0-6.0-0.159";"";"";"0";"";"img2/jap/4.jpg";"";260459;"";648;"image-keyboard-response";"";""
"650";18;"condition1";"";"";"";"";"";"0.0-6.0-1.159";"";"";"1";"";"+";"";260766;"";649;"html-keyboard-response";"";""
"651";18;"condition1";"";"";"";"";"";"0.0-6.0-2.159";"";"";"2";"";"img2/Mjap/4.jpg";"";260968;"";650;"image-keyboard-response";"";""
"652";18;"condition1";"S";"J";"";"";"";"0.0-6.0-3.159";"d";"438";"3";"M";"Press S if the two images were the same, Press D if the two images were different.";"";261406;"";651;"html-keyboard-response";"";""
"653";18;"condition1";"";"";"";"";"";"0.0-6.0-0.160";"";"";"0";"";"img2/false/11.jpg";"";261627;"";652;"image-keyboard-response";"";""
"654";18;"condition1";"";"";"";"";"";"0.0-6.0-1.160";"";"";"1";"";"+";"";261936;"";653;"html-keyboard-response";"";""
"655";18;"condition1";"";"";"";"";"";"0.0-6.0-2.160";"";"";"2";"";"img2/Mfalse/11.jpg";"";262154;"";654;"image-keyboard-response";"";""
"656";18;"condition1";"S";"M";"";"";"";"0.0-6.0-3.160";"d";"619";"3";"M";"Press S if the two images were the same, Press D if the two images were different.";"";262774;"";655;"html-keyboard-response";"";""
"657";18;"condition1";"";"";"";"";"";"0.0-6.0-0.161";"";"";"0";"";"img2/faces/6.jpg";"";262997;"";656;"image-keyboard-response";"";""
"658";18;"condition1";"";"";"";"";"";"0.0-6.0-1.161";"";"";"1";"";"+";"";263304;"";657;"html-keyboard-response";"";""
"659";18;"condition1";"";"";"";"";"";"0.0-6.0-2.161";"";"";"2";"";"img2/faces/14.jpg";"";263517;"";658;"image-keyboard-response";"";""
"660";18;"condition1";"D";"H";"";"";"";"0.0-6.0-3.161";"d";"1096";"3";"T";"Press S if the two images were the same, Press D if the two images were different.";"";264614;"";659;"html-keyboard-response";"";""
"661";18;"condition1";"";"";"";"";"";"0.0-6.0-0.162";"";"";"0";"";"img2/Mtools/14.jpg";"";264826;"";660;"image-keyboard-response";"";""
"662";18;"condition1";"";"";"";"";"";"0.0-6.0-1.162";"";"";"1";"";"+";"";265138;"";661;"html-keyboard-response";"";""
"663";18;"condition1";"";"";"";"";"";"0.0-6.0-2.162";"";"";"2";"";"img2/Mtools/13.jpg";"";265355;"";662;"image-keyboard-response";"";""
"664";18;"condition1";"D";"O";"";"";"";"0.0-6.0-3.162";"d";"490";"3";"M";"Press S if the two images were the same, Press D if the two images were different.";"";265845;"";663;"html-keyboard-response";"";""
"665";18;"condition1";"";"";"";"";"";"0.0-6.0-0.163";"";"";"0";"";"img2/tools/2.jpg";"";266066;"";664;"image-keyboard-response";"";""
"666";18;"condition1";"";"";"";"";"";"0.0-6.0-1.163";"";"";"1";"";"+";"";266377;"";665;"html-keyboard-response";"";""
"667";18;"condition1";"";"";"";"";"";"0.0-6.0-2.163";"";"";"2";"";"img2/tools/9.jpg";"";266594;"";666;"image-keyboard-response";"";""
"668";18;"condition1";"D";"O";"";"";"";"0.0-6.0-3.163";"d";"307";"3";"T";"Press S if the two images were the same, Press D if the two images were different.";"";266901;"";667;"html-keyboard-response";"";""
"669";18;"condition1";"";"";"";"";"";"0.0-6.0-0.164";"";"";"0";"";"img2/faces/12.jpg";"";267121;"";668;"image-keyboard-response";"";""
"670";18;"condition1";"";"";"";"";"";"0.0-6.0-1.164";"";"";"1";"";"+";"";267429;"";669;"html-keyboard-response";"";""
"671";18;"condition1";"";"";"";"";"";"0.0-6.0-2.164";"";"";"2";"";"img2/faces/12.jpg";"";267645;"";670;"image-keyboard-response";"";""
"672";18;"condition1";"S";"H";"";"";"";"0.0-6.0-3.164";"s";"377";"3";"T";"Press S if the two images were the same, Press D if the two images were different.";"";268022;"";671;"html-keyboard-response";"";""
"673";18;"condition1";"";"";"";"";"";"0.0-6.0-0.165";"";"";"0";"";"img2/jap/14.jpg";"";268230;"";672;"image-keyboard-response";"";""
"674";18;"condition1";"";"";"";"";"";"0.0-6.0-1.165";"";"";"1";"";"+";"";268538;"";673;"html-keyboard-response";"";""
"675";18;"condition1";"";"";"";"";"";"0.0-6.0-2.165";"";"";"2";"";"img2/Mjap/14.jpg";"";268741;"";674;"image-keyboard-response";"";""
"676";18;"condition1";"S";"J";"";"";"";"0.0-6.0-3.165";"d";"417";"3";"M";"Press S if the two images were the same, Press D if the two images were different.";"";269159;"";675;"html-keyboard-response";"";""
"677";18;"condition1";"";"";"";"";"";"0.0-6.0-0.166";"";"";"0";"";"img2/tools/4.jpg";"";269359;"";676;"image-keyboard-response";"";""
"678";18;"condition1";"";"";"";"";"";"0.0-6.0-1.166";"";"";"1";"";"+";"";269670;"";677;"html-keyboard-response";"";""
