workerid,proliferate.condition,0,1,failed_audio,failed_images,failed_video,internal_node_id,response,rt,stimulus,success,time_elapsed,timeout,trial_index,trial_type,view_history,error
18,condition1,,,[],[],[],0.0-0.0,,,,True,1298,False,0,preload,,
18,condition1,,,,,,0.0-1.0,,35605,,,36904,,1,instructions,"[{'page_index': 0, 'viewing_time': 4204}, {'page_index': 1, 'viewing_time': 10283}, {'page_index': 2, 'viewing_time': 17992}, {'page_index': 3, 'viewing_time': 3126}]",
18,condition1,,,,,,0.0-2.0-0.0,,,img2/tools/2.jpg,,37115,,2,image-keyboard-response,,
18,condition1,,,,,,0.0-2.0-1.0,,,+,,37418,,3,html-keyboard-response,,
18,condition1,,,,,,0.0-2.0-2.0,,,img2/Mtools/2.jpg,,37634,,4,image-keyboard-response,,
18,condition1,,,,,,0.0-2.0-3.0,s,2148,"Press S if the two images were the same, Press D if the two images were different.",,39783,,5,html-keyboard-response,,
18,condition1,,,,,,0.0-3.0,,4214,,,43997,,6,instructions,"[{'page_index': 0, 'viewing_time': 4214}]",
18,condition1,,,,,,0.0-4.0-0.0,,,img2/jap/2.jpg,,44217,,7,image-keyboard-response,,
18,condition1,,,,,,0.0-4.0-1.0,,,+,,44526,,8,html-keyboard-response,,
18,condition1,,,,,,0.0-4.0-2.0,,,img2/jap/3.jpg,,44741,,9,image-keyboard-response,,
18,condition1,,,,,,0.0-4.0-3.0,d,2511,"Press S if the two images were the same, Press D if the two images were different.",,47253,,10,html-keyboard-response,,
18,condition1,,,,,,0.0-5.0,,2039,,,49293,,11,instructions,"[{'page_index': 0, 'viewing_time': 2039}]",
18,condition1,,,,,,0.0-6.0-0.0,,,img2/Mfalse/12.jpg,,49500,,12,image-keyboard-response,,
18,condition1,,,,,,0.0-6.0-1.0,,,+,,49810,,13,html-keyboard-response,,
18,condition1,,,,,,0.0-6.0-2.0,,,img2/Mfalse/8.jpg,,50025,,14,image-keyboard-response,,
18,condition1,D,M,,,,0.0-6.0-3.0,d,581,"Press S if the two images were the same, Press D if the two images were different.",,50606,,15,html-keyboard-response,,
18,condition1,,,,,,0.0-6.0-0.1,,,img2/jap/6.jpg,,50822,,16,image-keyboard-response,,
18,condition1,,,,,,0.0-6.0-1.1,,,+,,51130,,17,html-keyboard-response,,
18,condition1,,,,,,0.0-6.0-2.1,,,img2/jap/6.jpg,,51344,,18,image-keyboard-response,,
18,condition1,S,J,,,,0.0-6.0-3.1,d,901,"Press S if the two images were the same, Press D if the two images were different.",,52246,,19,html-keyboard-response,,
18,condition1,,,,,,0.0-6.0-0.2,,,img2/Mfalse/7.jpg,,52465,,20,image-keyboard-response,,
18,condition1,,,,,,0.0-6.0-1.2,,,+,,52772,,21,html-keyboard-response,,
18,condition1,,,,,,0.0-6.0-2.2,,,img2/Mfalse/13.jpg,,52987,,22,image-keyboard-response,,
18,condition1,D,M,,,,0.0-6.0-3.2,d,578,"Press S if the two images were the same, Press D if the two images were different.",,53566,,23,html-keyboard-response,,
18,condition1,,,,,,0.0-6.0-0.3,,,img2/tools/13.jpg,,53775,,24,image-keyboard-response,,
18,condition1,,,,,,0.0-6.0-1.3,,,+,,54084,,25,html-keyboard-response,,
18,condition1,,,,,,0.0-6.0-2.3,,,img2/Mtools/13.jpg,,54300,,26,image-keyboard-response,,
18,condition1,S,O,,,,0.0-6.0-3.3,d,554,"Press S if the two images were the same, Press D if the two images were different.",,54854,,27,html-keyboard-response,,
18,condition1,,,,,,0.0-6.0-0.4,,,img2/faces/13.jpg,,55064,,28,image-keyboard-response,,
18,condition1,,,,,,0.0-6.0-1.4,,,+,,55386,,29,html-keyboard-response,,
18,condition1,,,,,,0.0-6.0-2.4,,,img2/faces/11.jpg,,55602,,30,image-keyboard-response,,
18,condition1,D,H,,,,0.0-6.0-3.4,d,420,"Press S if the two images were the same, Press D if the two images were different.",,56022,,31,html-keyboard-response,,
18,condition1,,,,,,0.0-6.0-0.5,,,img2/jap/8.jpg,,56235,,32,image-keyboard-response,,
18,condition1,,,,,,0.0-6.0-1.5,,,+,,56544,,33,html-keyboard-response,,
18,condition1,,,,,,0.0-6.0-2.5,,,img2/jap/9.jpg,,56761,,34,image-keyboard-response,,
18,condition1,D,J,,,,0.0-6.0-3.5,d,494,"Press S if the two images were the same, Press D if the two images were different.",,57256,,35,html-keyboard-response,,
18,condition1,,,,,,0.0-6.0-0.6,,,img2/french/3.jpg,,57467,,36,image-keyboard-response,,
18,condition1,,,,,,0.0-6.0-1.6,,,+,,57775,,37,html-keyboard-response,,
18,condition1,,,,,,0.0-6.0-2.6,,,img2/french/13.jpg,,57992,,38,image-keyboard-response,,
18,condition1,D,R,,,,0.0-6.0-3.6,d,469,"Press S if the two images were the same, Press D if the two images were different.",,58461,,39,html-keyboard-response,,
18,condition1,,,,,,0.0-6.0-0.7,,,img2/jap/1.jpg,,58671,,40,image-keyboard-response,,
18,condition1,,,,,,0.0-6.0-1.7,,,+,,58995,,41,html-keyboard-response,,
18,condition1,,,,,,0.0-6.0-2.7,,,img2/jap/7.jpg,,59211,,42,image-keyboard-response,,
18,condition1,D,J,,,,0.0-6.0-3.7,d,602,"Press S if the two images were the same, Press D if the two images were different.",,59813,,43,html-keyboard-response,,
18,condition1,,,,,,0.0-6.0-0.8,,,img2/jap/10.jpg,,60026,,44,image-keyboard-response,,
18,condition1,,,,,,0.0-6.0-1.8,,,+,,60333,,45,html-keyboard-response,,
18,condition1,,,,,,0.0-6.0-2.8,,,img2/jap/10.jpg,,60547,,46,image-keyboard-response,,
18,condition1,S,J,,,,0.0-6.0-3.8,s,379,"Press S if the two images were the same, Press D if the two images were different.",,60926,,47,html-keyboard-response,,
18,condition1,,,,,,0.0-6.0-0.9,,,img2/Mfalse/8.jpg,,61147,,48,image-keyboard-response,,
18,condition1,,,,,,0.0-6.0-1.9,,,+,,61454,,49,html-keyboard-response,,
18,condition1,,,,,,0.0-6.0-2.9,,,img2/Mfalse/9.jpg,,61669,,50,image-keyboard-response,,
18,condition1,D,M,,,,0.0-6.0-3.9,d,435,"Press S if the two images were the same, Press D if the two images were different.",,62105,,51,html-keyboard-response,,
18,condition1,,,,,,0.0-6.0-0.10,,,img2/tools/10.jpg,,62314,,52,image-keyboard-response,,
18,condition1,,,,,,0.0-6.0-1.10,,,+,,62623,,53,html-keyboard-response,,
18,condition1,,,,,,0.0-6.0-2.10,,,img2/Mtools/10.jpg,,62837,,54,image-keyboard-response,,
18,condition1,S,O,,,,0.0-6.0-3.10,d,328,"Press S if the two images were the same, Press D if the two images were different.",,63166,,55,html-keyboard-response,,
18,condition1,,,,,,0.0-6.0-0.11,,,img2/Mjap/7.jpg,,63387,,56,image-keyboard-response,,
18,condition1,,,,,,0.0-6.0-1.11,,,+,,63695,,57,html-keyboard-response,,
18,condition1,,,,,,0.0-6.0-2.11,,,img2/Mjap/13.jpg,,63911,,58,image-keyboard-response,,
18,condition1,D,J,,,,0.0-6.0-3.11,d,647,"Press S if the two images were the same, Press D if the two images were different.",,64558,,59,html-keyboard-response,,
18,condition1,,,,,,0.0-6.0-0.12,,,img2/false/1.jpg,,64767,,60,image-keyboard-response,,
18,condition1,,,,,,0.0-6.0-1.12,,,+,,65074,,61,html-keyboard-response,,
18,condition1,,,,,,0.0-6.0-2.12,,,img2/Mfalse/1.jpg,,65290,,62,image-keyboard-response,,
18,condition1,S,M,,,,0.0-6.0-3.12,s,1005,"Press S if the two images were the same, Press D if the two images were different.",,66296,,63,html-keyboard-response,,
18,condition1,,,,,,0.0-6.0-0.13,,,img2/Mfaces/2.jpg,,66509,,64,image-keyboard-response,,
18,condition1,,,,,,0.0-6.0-1.13,,,+,,66820,,65,html-keyboard-response,,
18,condition1,,,,,,0.0-6.0-2.13,,,img2/Mfaces/9.jpg,,67035,,66,image-keyboard-response,,
18,condition1,D,H,,,,0.0-6.0-3.13,d,346,"Press S if the two images were the same, Press D if the two images were different.",,67381,,67,html-keyboard-response,,
18,condition1,,,,,,0.0-6.0-0.14,,,img2/tools/3.jpg,,67601,,68,image-keyboard-response,,
18,condition1,,,,,,0.0-6.0-1.14,,,+,,67911,,69,html-keyboard-response,,
18,condition1,,,,,,0.0-6.0-2.14,,,img2/Mtools/3.jpg,,68125,,70,image-keyboard-response,,
18,condition1,S,O,,,,0.0-6.0-3.14,d,615,"Press S if the two images were the same, Press D if the two images were different.",,68741,,71,html-keyboard-response,,
18,condition1,,,,,,0.0-6.0-0.15,,,img2/false/8.jpg,,68951,,72,image-keyboard-response,,
18,condition1,,,,,,0.0-6.0-1.15,,,+,,69261,,73,html-keyboard-response,,
18,condition1,,,,,,0.0-6.0-2.15,,,img2/false/9.jpg,,69476,,74,image-keyboard-response,,
18,condition1,D,M,,,,0.0-6.0-3.15,d,778,"Press S if the two images were the same, Press D if the two images were different.",,70254,,75,html-keyboard-response,,
18,condition1,,,,,,0.0-6.0-0.16,,,img2/false/4.jpg,,70472,,76,image-keyboard-response,,
18,condition1,,,,,,0.0-6.0-1.16,,,+,,70793,,77,html-keyboard-response,,
18,condition1,,,,,,0.0-6.0-2.16,,,img2/false/4.jpg,,71009,,78,image-keyboard-response,,
18,condition1,S,M,,,,0.0-6.0-3.16,s,676,"Press S if the two images were the same, Press D if the two images were different.",,71685,,79,html-keyboard-response,,
18,condition1,,,,,,0.0-6.0-0.17,,,img2/french/13.jpg,,71901,,80,image-keyboard-response,,
18,condition1,,,,,,0.0-6.0-1.17,,,+,,72208,,81,html-keyboard-response,,
18,condition1,,,,,,0.0-6.0-2.17,,,img2/Mfrench/13.jpg,,72421,,82,image-keyboard-response,,
18,condition1,S,R,,,,0.0-6.0-3.17,d,625,"Press S if the two images were the same, Press D if the two images were different.",,73046,,83,html-keyboard-response,,
18,condition1,,,,,,0.0-6.0-0.18,,,img2/tools/5.jpg,,73258,,84,image-keyboard-response,,
18,condition1,,,,,,0.0-6.0-1.18,,,+,,73569,,85,html-keyboard-response,,
18,condition1,,,,,,0.0-6.0-2.18,,,img2/tools/5.jpg,,73782,,86,image-keyboard-response,,
18,condition1,S,O,,,,0.0-6.0-3.18,s,449,"Press S if the two images were the same, Press D if the two images were different.",,74232,,87,html-keyboard-response,,
18,condition1,,,,,,0.0-6.0-0.19,,,img2/faces/5.jpg,,74448,,88,image-keyboard-response,,
18,condition1,,,,,,0.0-6.0-1.19,,,+,,74757,,89,html-keyboard-response,,
18,condition1,,,,,,0.0-6.0-2.19,,,img2/faces/5.jpg,,74973,,90,image-keyboard-response,,
18,condition1,S,H,,,,0.0-6.0-3.19,s,376,"Press S if the two images were the same, Press D if the two images were different.",,75350,,91,html-keyboard-response,,
18,condition1,,,,,,0.0-6.0-0.20,,,img2/Mjap/4.jpg,,75559,,92,image-keyboard-response,,
18,condition1,,,,,,0.0-6.0-1.20,,,+,,75870,,93,html-keyboard-response,,
18,condition1,,,,,,0.0-6.0-2.20,,,img2/Mjap/12.jpg,,76083,,94,image-keyboard-response,,
18,condition1,D,J,,,,0.0-6.0-3.20,d,437,"Press S if the two images were the same, Press D if the two images were different.",,76520,,95,html-keyboard-response,,
18,condition1,,,,,,0.0-6.0-0.21,,,img2/jap/6.jpg,,76734,,96,image-keyboard-response,,
18,condition1,,,,,,0.0-6.0-1.21,,,+,,77040,,97,html-keyboard-response,,
18,condition1,,,,,,0.0-6.0-2.21,,,img2/jap/14.jpg,,77254,,98,image-keyboard-response,,
18,condition1,D,J,,,,0.0-6.0-3.21,d,904,"Press S if the two images were the same, Press D if the two images were different.",,78158,,99,html-keyboard-response,,
18,condition1,,,,,,0.0-6.0-0.22,,,img2/tools/12.jpg,,78359,,100,image-keyboard-response,,
18,condition1,,,,,,0.0-6.0-1.22,,,+,,78665,,101,html-keyboard-response,,
18,condition1,,,,,,0.0-6.0-2.22,,,img2/Mtools/12.jpg,,78883,,102,image-keyboard-response,,
18,condition1,S,O,,,,0.0-6.0-3.22,d,540,"Press S if the two images were the same, Press D if the two images were different.",,79424,,103,html-keyboard-response,,
18,condition1,,,,,,0.0-6.0-0.23,,,img2/french/12.jpg,,79636,,104,image-keyboard-response,,
18,condition1,,,,,,0.0-6.0-1.23,,,+,,79943,,105,html-keyboard-response,,
18,condition1,,,,,,0.0-6.0-2.23,,,img2/french/12.jpg,,80158,,106,image-keyboard-response,,
18,condition1,S,R,,,,0.0-6.0-3.23,s,367,"Press S if the two images were the same, Press D if the two images were different.",,80535,,107,html-keyboard-response,,
18,condition1,,,,,,0.0-6.0-0.24,,,img2/french/1.jpg,,80744,,108,image-keyboard-response,,
18,condition1,,,,,,0.0-6.0-1.24,,,+,,81050,,109,html-keyboard-response,,
18,condition1,,,,,,0.0-6.0-2.24,,,img2/french/7.jpg,,81264,,110,image-keyboard-response,,
18,condition1,D,R,,,,0.0-6.0-3.24,d,581,"Press S if the two images were the same, Press D if the two images were different.",,81845,,111,html-keyboard-response,,
18,condition1,,,,,,0.0-6.0-0.25,,,img2/false/12.jpg,,82063,,112,image-keyboard-response,,
18,condition1,,,,,,0.0-6.0-1.25,,,+,,82386,,113,html-keyboard-response,,
18,condition1,,,,,,0.0-6.0-2.25,,,img2/false/8.jpg,,82588,,114,image-keyboard-response,,
18,condition1,D,M,,,,0.0-6.0-3.25,d,450,"Press S if the two images were the same, Press D if the two images were different.",,83038,,115,html-keyboard-response,,
18,condition1,,,,,,0.0-6.0-0.26,,,img2/false/1.jpg,,83251,,116,image-keyboard-response,,
18,condition1,,,,,,0.0-6.0-1.26,,,+,,83559,,117,html-keyboard-response,,
18,condition1,,,,,,0.0-6.0-2.26,,,img2/false/1.jpg,,83760,,118,image-keyboard-response,,
18,condition1,S,M,,,,0.0-6.0-3.26,s,348,"Press S if the two images were the same, Press D if the two images were different.",,84109,,119,html-keyboard-response,,
18,condition1,,,,,,0.0-6.0-0.27,,,img2/french/5.jpg,,84329,,120,image-keyboard-response,,
18,condition1,,,,,,0.0-6.0-1.27,,,+,,84637,,121,html-keyboard-response,,
18,condition1,,,,,,0.0-6.0-2.27,,,img2/french/5.jpg,,84852,,122,image-keyboard-response,,
18,condition1,S,R,,,,0.0-6.0-3.27,s,409,"Press S if the two images were the same, Press D if the two images were different.",,85262,,123,html-keyboard-response,,
18,condition1,,,,,,0.0-6.0-0.28,,,img2/french/9.jpg,,85469,,124,image-keyboard-response,,
18,condition1,,,,,,0.0-6.0-1.28,,,+,,85776,,125,html-keyboard-response,,
18,condition1,,,,,,0.0-6.0-2.28,,,img2/Mfrench/9.jpg,,85988,,126,image-keyboard-response,,
18,condition1,S,R,,,,0.0-6.0-3.28,d,385,"Press S if the two images were the same, Press D if the two images were different.",,86374,,127,html-keyboard-response,,
18,condition1,,,,,,0.0-6.0-0.29,,,img2/french/10.jpg,,86585,,128,image-keyboard-response,,
18,condition1,,,,,,0.0-6.0-1.29,,,+,,86907,,129,html-keyboard-response,,
18,condition1,,,,,,0.0-6.0-2.29,,,img2/Mfrench/10.jpg,,87123,,130,image-keyboard-response,,
18,condition1,S,R,,,,0.0-6.0-3.29,d,589,"Press S if the two images were the same, Press D if the two images were different.",,87712,,131,html-keyboard-response,,
18,condition1,,,,,,0.0-6.0-0.30,,,img2/Mfrench/13.jpg,,87923,,132,image-keyboard-response,,
18,condition1,,,,,,0.0-6.0-1.30,,,+,,88232,,133,html-keyboard-response,,
18,condition1,,,,,,0.0-6.0-2.30,,,img2/Mfrench/11.jpg,,88450,,134,image-keyboard-response,,
18,condition1,D,R,,,,0.0-6.0-3.30,d,1035,"Press S if the two images were the same, Press D if the two images were different.",,89485,,135,html-keyboard-response,,
18,condition1,,,,,,0.0-6.0-0.31,,,img2/tools/3.jpg,,89693,,136,image-keyboard-response,,
18,condition1,,,,,,0.0-6.0-1.31,,,+,,89999,,137,html-keyboard-response,,
18,condition1,,,,,,0.0-6.0-2.31,,,img2/tools/13.jpg,,90214,,138,image-keyboard-response,,
18,condition1,D,O,,,,0.0-6.0-3.31,d,511,"Press S if the two images were the same, Press D if the two images were different.",,90726,,139,html-keyboard-response,,
18,condition1,,,,,,0.0-6.0-0.32,,,img2/tools/13.jpg,,90938,,140,image-keyboard-response,,
18,condition1,,,,,,0.0-6.0-1.32,,,+,,91247,,141,html-keyboard-response,,
18,condition1,,,,,,0.0-6.0-2.32,,,img2/tools/13.jpg,,91462,,142,image-keyboard-response,,
18,condition1,S,O,,,,0.0-6.0-3.32,s,447,"Press S if the two images were the same, Press D if the two images were different.",,91910,,143,html-keyboard-response,,
18,condition1,,,,,,0.0-6.0-0.33,,,img2/faces/1.jpg,,92128,,144,image-keyboard-response,,
18,condition1,,,,,,0.0-6.0-1.33,,,+,,92450,,145,html-keyboard-response,,
18,condition1,,,,,,0.0-6.0-2.33,,,img2/faces/1.jpg,,92666,,146,image-keyboard-response,,
18,condition1,S,H,,,,0.0-6.0-3.33,s,285,"Press S if the two images were the same, Press D if the two images were different.",,92951,,147,html-keyboard-response,,
18,condition1,,,,,,0.0-6.0-0.34,,,img2/jap/4.jpg,,93170,,148,image-keyboard-response,,
18,condition1,,,,,,0.0-6.0-1.34,,,+,,93480,,149,html-keyboard-response,,
18,condition1,,,,,,0.0-6.0-2.34,,,img2/jap/4.jpg,,93696,,150,image-keyboard-response,,
18,condition1,S,J,,,,0.0-6.0-3.34,s,381,"Press S if the two images were the same, Press D if the two images were different.",,94078,,151,html-keyboard-response,,
18,condition1,,,,,,0.0-6.0-0.35,,,img2/faces/10.jpg,,94293,,152,image-keyboard-response,,
18,condition1,,,,,,0.0-6.0-1.35,,,+,,94601,,153,html-keyboard-response,,
18,condition1,,,,,,0.0-6.0-2.35,,,img2/Mfaces/10.jpg,,94817,,154,image-keyboard-response,,
18,condition1,S,H,,,,0.0-6.0-3.35,d,388,"Press S if the two images were the same, Press D if the two images were different.",,95205,,155,html-keyboard-response,,
18,condition1,,,,,,0.0-6.0-0.36,,,img2/tools/5.jpg,,95419,,156,image-keyboard-response,,
18,condition1,,,,,,0.0-6.0-1.36,,,+,,95725,,157,html-keyboard-response,,
18,condition1,,,,,,0.0-6.0-2.36,,,img2/Mtools/5.jpg,,95941,,158,image-keyboard-response,,
18,condition1,S,O,,,,0.0-6.0-3.36,d,504,"Press S if the two images were the same, Press D if the two images were different.",,96446,,159,html-keyboard-response,,
18,condition1,,,,,,0.0-6.0-0.37,,,img2/faces/2.jpg,,96666,,160,image-keyboard-response,,
18,condition1,,,,,,0.0-6.0-1.37,,,+,,96973,,161,html-keyboard-response,,
18,condition1,,,,,,0.0-6.0-2.37,,,img2/Mfaces/2.jpg,,97188,,162,image-keyboard-response,,
18,condition1,S,H,,,,0.0-6.0-3.37,d,505,"Press S if the two images were the same, Press D if the two images were different.",,97694,,163,html-keyboard-response,,
18,condition1,,,,,,0.0-6.0-0.38,,,img2/faces/2.jpg,,97914,,164,image-keyboard-response,,
18,condition1,,,,,,0.0-6.0-1.38,,,+,,98223,,165,html-keyboard-response,,
18,condition1,,,,,,0.0-6.0-2.38,,,img2/faces/2.jpg,,98439,,166,image-keyboard-response,,
18,condition1,S,H,,,,0.0-6.0-3.38,s,384,"Press S if the two images were the same, Press D if the two images were different.",,98824,,167,html-keyboard-response,,
18,condition1,,,,,,0.0-6.0-0.39,,,img2/tools/8.jpg,,99030,,168,image-keyboard-response,,
18,condition1,,,,,,0.0-6.0-1.39,,,+,,99336,,169,html-keyboard-response,,
18,condition1,,,,,,0.0-6.0-2.39,,,img2/Mtools/8.jpg,,99554,,170,image-keyboard-response,,
18,condition1,S,O,,,,0.0-6.0-3.39,d,499,"Press S if the two images were the same, Press D if the two images were different.",,100053,,171,html-keyboard-response,,
18,condition1,,,,,,0.0-6.0-0.40,,,img2/french/7.jpg,,100272,,172,image-keyboard-response,,
18,condition1,,,,,,0.0-6.0-1.40,,,+,,100594,,173,html-keyboard-response,,
18,condition1,,,,,,0.0-6.0-2.40,,,img2/french/13.jpg,,100809,,174,image-keyboard-response,,
18,condition1,D,R,,,,0.0-6.0-3.40,d,500,"Press S if the two images were the same, Press D if the two images were different.",,101310,,175,html-keyboard-response,,
18,condition1,,,,,,0.0-6.0-0.41,,,img2/Mtools/13.jpg,,101522,,176,image-keyboard-response,,
18,condition1,,,,,,0.0-6.0-1.41,,,+,,101829,,177,html-keyboard-response,,
18,condition1,,,,,,0.0-6.0-2.41,,,img2/Mtools/11.jpg,,102044,,178,image-keyboard-response,,
18,condition1,D,O,,,,0.0-6.0-3.41,d,537,"Press S if the two images were the same, Press D if the two images were different.",,102582,,179,html-keyboard-response,,
18,condition1,,,,,,0.0-6.0-0.42,,,img2/Mfalse/10.jpg,,102799,,180,image-keyboard-response,,
18,condition1,,,,,,0.0-6.0-1.42,,,+,,103120,,181,html-keyboard-response,,
18,condition1,,,,,,0.0-6.0-2.42,,,img2/Mfalse/12.jpg,,103334,,182,image-keyboard-response,,
18,condition1,D,M,,,,0.0-6.0-3.42,d,419,"Press S if the two images were the same, Press D if the two images were different.",,103753,,183,html-keyboard-response,,
18,condition1,,,,,,0.0-6.0-0.43,,,img2/jap/11.jpg,,103964,,184,image-keyboard-response,,
18,condition1,,,,,,0.0-6.0-1.43,,,+,,104270,,185,html-keyboard-response,,
18,condition1,,,,,,0.0-6.0-2.43,,,img2/jap/11.jpg,,104484,,186,image-keyboard-response,,
18,condition1,S,J,,,,0.0-6.0-3.43,s,337,"Press S if the two images were the same, Press D if the two images were different.",,104821,,187,html-keyboard-response,,
18,condition1,,,,,,0.0-6.0-0.44,,,img2/french/3.jpg,,105035,,188,image-keyboard-response,,
18,condition1,,,,,,0.0-6.0-1.44,,,+,,105342,,189,html-keyboard-response,,
18,condition1,,,,,,0.0-6.0-2.44,,,img2/french/3.jpg,,105557,,190,image-keyboard-response,,
18,condition1,S,R,,,,0.0-6.0-3.44,s,424,"Press S if the two images were the same, Press D if the two images were different.",,105982,,191,html-keyboard-response,,
18,condition1,,,,,,0.0-6.0-0.45,,,img2/jap/2.jpg,,106190,,192,image-keyboard-response,,
18,condition1,,,,,,0.0-6.0-1.45,,,+,,106500,,193,html-keyboard-response,,
18,condition1,,,,,,0.0-6.0-2.45,,,img2/Mjap/2.jpg,,106717,,194,image-keyboard-response,,
18,condition1,S,J,,,,0.0-6.0-3.45,d,511,"Press S if the two images were the same, Press D if the two images were different.",,107229,,195,html-keyboard-response,,
18,condition1,,,,,,0.0-6.0-0.46,,,img2/Mfalse/2.jpg,,107444,,196,image-keyboard-response,,
18,condition1,,,,,,0.0-6.0-1.46,,,+,,107749,,197,html-keyboard-response,,
18,condition1,,,,,,0.0-6.0-2.46,,,img2/Mfalse/9.jpg,,107966,,198,image-keyboard-response,,
18,condition1,D,M,,,,0.0-6.0-3.46,d,592,"Press S if the two images were the same, Press D if the two images were different.",,108558,,199,html-keyboard-response,,
18,condition1,,,,,,0.0-6.0-0.47,,,img2/false/13.jpg,,108769,,200,image-keyboard-response,,
18,condition1,,,,,,0.0-6.0-1.47,,,+,,109075,,201,html-keyboard-response,,
18,condition1,,,,,,0.0-6.0-2.47,,,img2/Mfalse/13.jpg,,109290,,202,image-keyboard-response,,
18,condition1,S,M,,,,0.0-6.0-3.47,d,485,"Press S if the two images were the same, Press D if the two images were different.",,109776,,203,html-keyboard-response,,
18,condition1,,,,,,0.0-6.0-0.48,,,img2/tools/14.jpg,,109983,,204,image-keyboard-response,,
18,condition1,,,,,,0.0-6.0-1.48,,,+,,110291,,205,html-keyboard-response,,
18,condition1,,,,,,0.0-6.0-2.48,,,img2/tools/14.jpg,,110505,,206,image-keyboard-response,,
18,condition1,S,O,,,,0.0-6.0-3.48,s,228,"Press S if the two images were the same, Press D if the two images were different.",,110733,,207,html-keyboard-response,,
18,condition1,,,,,,0.0-6.0-0.49,,,img2/french/11.jpg,,110946,,208,image-keyboard-response,,
18,condition1,,,,,,0.0-6.0-1.49,,,+,,111267,,209,html-keyboard-response,,
18,condition1,,,,,,0.0-6.0-2.49,,,img2/Mfrench/11.jpg,,111481,,210,image-keyboard-response,,
18,condition1,S,R,,,,0.0-6.0-3.49,d,357,"Press S if the two images were the same, Press D if the two images were different.",,111839,,211,html-keyboard-response,,
18,condition1,,,,,,0.0-6.0-0.50,,,img2/french/7.jpg,,112050,,212,image-keyboard-response,,
18,condition1,,,,,,0.0-6.0-1.50,,,+,,112357,,213,html-keyboard-response,,
18,condition1,,,,,,0.0-6.0-2.50,,,img2/Mfrench/7.jpg,,112571,,214,image-keyboard-response,,
18,condition1,S,R,,,,0.0-6.0-3.50,d,577,"Press S if the two images were the same, Press D if the two images were different.",,113149,,215,html-keyboard-response,,
18,condition1,,,,,,0.0-6.0-0.51,,,img2/faces/9.jpg,,113357,,216,image-keyboard-response,,
18,condition1,,,,,,0.0-6.0-1.51,,,+,,113665,,217,html-keyboard-response,,
18,condition1,,,,,,0.0-6.0-2.51,,,img2/faces/9.jpg,,113884,,218,image-keyboard-response,,
18,condition1,S,H,,,,0.0-6.0-3.51,s,441,"Press S if the two images were the same, Press D if the two images were different.",,114325,,219,html-keyboard-response,,
18,condition1,,,,,,0.0-6.0-0.52,,,img2/tools/7.jpg,,114544,,220,image-keyboard-response,,
18,condition1,,,,,,0.0-6.0-1.52,,,+,,114854,,221,html-keyboard-response,,
18,condition1,,,,,,0.0-6.0-2.52,,,img2/tools/13.jpg,,115068,,222,image-keyboard-response,,
18,condition1,D,O,,,,0.0-6.0-3.52,d,442,"Press S if the two images were the same, Press D if the two images were different.",,115510,,223,html-keyboard-response,,
18,condition1,,,,,,0.0-6.0-0.53,,,img2/faces/6.jpg,,115719,,224,image-keyboard-response,,
18,condition1,,,,,,0.0-6.0-1.53,,,+,,116043,,225,html-keyboard-response,,
18,condition1,,,,,,0.0-6.0-2.53,,,img2/Mfaces/6.jpg,,116260,,226,image-keyboard-response,,
18,condition1,S,H,,,,0.0-6.0-3.53,d,450,"Press S if the two images were the same, Press D if the two images were different.",,116710,,227,html-keyboard-response,,
18,condition1,,,,,,0.0-6.0-0.54,,,img2/jap/4.jpg,,116923,,228,image-keyboard-response,,
18,condition1,,,,,,0.0-6.0-1.54,,,+,,117230,,229,html-keyboard-response,,
18,condition1,,,,,,0.0-6.0-2.54,,,img2/jap/12.jpg,,117445,,230,image-keyboard-response,,
18,condition1,D,J,,,,0.0-6.0-3.54,d,584,"Press S if the two images were the same, Press D if the two images were different.",,118031,,231,html-keyboard-response,,
18,condition1,,,,,,0.0-6.0-0.55,,,img2/false/8.jpg,,118249,,232,image-keyboard-response,,
18,condition1,,,,,,0.0-6.0-1.55,,,+,,118557,,233,html-keyboard-response,,
18,condition1,,,,,,0.0-6.0-2.55,,,img2/Mfalse/8.jpg,,118772,,234,image-keyboard-response,,
18,condition1,S,M,,,,0.0-6.0-3.55,d,401,"Press S if the two images were the same, Press D if the two images were different.",,119174,,235,html-keyboard-response,,
18,condition1,,,,,,0.0-6.0-0.56,,,img2/jap/7.jpg,,119391,,236,image-keyboard-response,,
18,condition1,,,,,,0.0-6.0-1.56,,,+,,119711,,237,html-keyboard-response,,
18,condition1,,,,,,0.0-6.0-2.56,,,img2/jap/7.jpg,,119929,,238,image-keyboard-response,,
18,condition1,S,J,,,,0.0-6.0-3.56,s,365,"Press S if the two images were the same, Press D if the two images were different.",,120295,,239,html-keyboard-response,,
18,condition1,,,,,,0.0-6.0-0.57,,,img2/jap/13.jpg,,120511,,240,image-keyboard-response,,
18,condition1,,,,,,0.0-6.0-1.57,,,+,,120818,,241,html-keyboard-response,,
18,condition1,,,,,,0.0-6.0-2.57,,,img2/Mjap/13.jpg,,121031,,242,image-keyboard-response,,
18,condition1,S,J,,,,0.0-6.0-3.57,s,615,"Press S if the two images were the same, Press D if the two images were different.",,121646,,243,html-keyboard-response,,
18,condition1,,,,,,0.0-6.0-0.58,,,img2/Mfaces/13.jpg,,121863,,244,image-keyboard-response,,
18,condition1,,,,,,0.0-6.0-1.58,,,+,,122168,,245,html-keyboard-response,,
18,condition1,,,,,,0.0-6.0-2.58,,,img2/Mfaces/11.jpg,,122371,,246,image-keyboard-response,,
18,condition1,D,H,,,,0.0-6.0-3.58,d,460,"Press S if the two images were the same, Press D if the two images were different.",,122831,,247,html-keyboard-response,,
18,condition1,,,,,,0.0-6.0-0.59,,,img2/Mtools/12.jpg,,123047,,248,image-keyboard-response,,
18,condition1,,,,,,0.0-6.0-1.59,,,+,,123370,,249,html-keyboard-response,,
18,condition1,,,,,,0.0-6.0-2.59,,,img2/Mtools/8.jpg,,123571,,250,image-keyboard-response,,
18,condition1,D,O,,,,0.0-6.0-3.59,d,603,"Press S if the two images were the same, Press D if the two images were different.",,124174,,251,html-keyboard-response,,
18,condition1,,,,,,0.0-6.0-0.60,,,img2/french/14.jpg,,124386,,252,image-keyboard-response,,
18,condition1,,,,,,0.0-6.0-1.60,,,+,,124696,,253,html-keyboard-response,,
18,condition1,,,,,,0.0-6.0-2.60,,,img2/Mfrench/14.jpg,,124909,,254,image-keyboard-response,,
18,condition1,S,R,,,,0.0-6.0-3.60,d,361,"Press S if the two images were the same, Press D if the two images were different.",,125271,,255,html-keyboard-response,,
18,condition1,,,,,,0.0-6.0-0.61,,,img2/Mtools/5.jpg,,125489,,256,image-keyboard-response,,
18,condition1,,,,,,0.0-6.0-1.61,,,+,,125809,,257,html-keyboard-response,,
18,condition1,,,,,,0.0-6.0-2.61,,,img2/Mtools/12.jpg,,126022,,258,image-keyboard-response,,
18,condition1,D,O,,,,0.0-6.0-3.61,d,359,"Press S if the two images were the same, Press D if the two images were different.",,126382,,259,html-keyboard-response,,
18,condition1,,,,,,0.0-6.0-0.62,,,img2/french/9.jpg,,126592,,260,image-keyboard-response,,
18,condition1,,,,,,0.0-6.0-1.62,,,+,,126899,,261,html-keyboard-response,,
18,condition1,,,,,,0.0-6.0-2.62,,,img2/french/9.jpg,,127117,,262,image-keyboard-response,,
18,condition1,S,R,,,,0.0-6.0-3.62,s,281,"Press S if the two images were the same, Press D if the two images were different.",,127398,,263,html-keyboard-response,,
18,condition1,,,,,,0.0-6.0-0.63,,,img2/Mfalse/13.jpg,,127606,,264,image-keyboard-response,,
18,condition1,,,,,,0.0-6.0-1.63,,,+,,127911,,265,html-keyboard-response,,
18,condition1,,,,,,0.0-6.0-2.63,,,img2/Mfalse/11.jpg,,128129,,266,image-keyboard-response,,
18,condition1,D,M,,,,0.0-6.0-3.63,d,990,"Press S if the two images were the same, Press D if the two images were different.",,129119,,267,html-keyboard-response,,
18,condition1,,,,,,0.0-6.0-0.64,,,img2/false/7.jpg,,129331,,268,image-keyboard-response,,
18,condition1,,,,,,0.0-6.0-1.64,,,+,,129641,,269,html-keyboard-response,,
18,condition1,,,,,,0.0-6.0-2.64,,,img2/false/7.jpg,,129855,,270,image-keyboard-response,,
18,condition1,S,M,,,,0.0-6.0-3.64,s,567,"Press S if the two images were the same, Press D if the two images were different.",,130423,,271,html-keyboard-response,,
18,condition1,,,,,,0.0-6.0-0.65,,,img2/faces/11.jpg,,130631,,272,image-keyboard-response,,
18,condition1,,,,,,0.0-6.0-1.65,,,+,,130942,,273,html-keyboard-response,,
18,condition1,,,,,,0.0-6.0-2.65,,,img2/Mfaces/11.jpg,,131158,,274,image-keyboard-response,,
18,condition1,S,H,,,,0.0-6.0-3.65,s,1007,"Press S if the two images were the same, Press D if the two images were different.",,132166,,275,html-keyboard-response,,
18,condition1,,,,,,0.0-6.0-0.66,,,img2/tools/6.jpg,,132372,,276,image-keyboard-response,,
18,condition1,,,,,,0.0-6.0-1.66,,,+,,132679,,277,html-keyboard-response,,
18,condition1,,,,,,0.0-6.0-2.66,,,img2/Mtools/6.jpg,,132894,,278,image-keyboard-response,,
18,condition1,S,O,,,,0.0-6.0-3.66,d,520,"Press S if the two images were the same, Press D if the two images were different.",,133414,,279,html-keyboard-response,,
18,condition1,,,,,,0.0-6.0-0.67,,,img2/faces/7.jpg,,133631,,280,image-keyboard-response,,
18,condition1,,,,,,0.0-6.0-1.67,,,+,,133939,,281,html-keyboard-response,,
18,condition1,,,,,,0.0-6.0-2.67,,,img2/Mfaces/7.jpg,,134157,,282,image-keyboard-response,,
18,condition1,S,H,,,,0.0-6.0-3.67,d,889,"Press S if the two images were the same, Press D if the two images were different.",,135046,,283,html-keyboard-response,,
18,condition1,,,,,,0.0-6.0-0.68,,,img2/jap/3.jpg,,135262,,284,image-keyboard-response,,
18,condition1,,,,,,0.0-6.0-1.68,,,+,,135568,,285,html-keyboard-response,,
18,condition1,,,,,,0.0-6.0-2.68,,,img2/jap/3.jpg,,135769,,286,image-keyboard-response,,
18,condition1,S,J,,,,0.0-6.0-3.68,s,620,"Press S if the two images were the same, Press D if the two images were different.",,136390,,287,html-keyboard-response,,
18,condition1,,,,,,0.0-6.0-0.69,,,img2/false/9.jpg,,136603,,288,image-keyboard-response,,
18,condition1,,,,,,0.0-6.0-1.69,,,+,,136913,,289,html-keyboard-response,,
18,condition1,,,,,,0.0-6.0-2.69,,,img2/Mfalse/9.jpg,,137128,,290,image-keyboard-response,,
18,condition1,S,M,,,,0.0-6.0-3.69,s,1014,"Press S if the two images were the same, Press D if the two images were different.",,138143,,291,html-keyboard-response,,
18,condition1,,,,,,0.0-6.0-0.70,,,img2/false/7.jpg,,138356,,292,image-keyboard-response,,
18,condition1,,,,,,0.0-6.0-1.70,,,+,,138665,,293,html-keyboard-response,,
18,condition1,,,,,,0.0-6.0-2.70,,,img2/false/13.jpg,,138877,,294,image-keyboard-response,,
18,condition1,D,M,,,,0.0-6.0-3.70,d,456,"Press S if the two images were the same, Press D if the two images were different.",,139334,,295,html-keyboard-response,,
18,condition1,,,,,,0.0-6.0-0.71,,,img2/french/9.jpg,,139540,,296,image-keyboard-response,,
18,condition1,,,,,,0.0-6.0-1.71,,,+,,139850,,297,html-keyboard-response,,
18,condition1,,,,,,0.0-6.0-2.71,,,img2/french/12.jpg,,140062,,298,image-keyboard-response,,
18,condition1,D,R,,,,0.0-6.0-3.71,d,296,"Press S if the two images were the same, Press D if the two images were different.",,140359,,299,html-keyboard-response,,
18,condition1,,,,,,0.0-6.0-0.72,,,img2/jap/12.jpg,,140571,,300,image-keyboard-response,,
18,condition1,,,,,,0.0-6.0-1.72,,,+,,140877,,301,html-keyboard-response,,
18,condition1,,,,,,0.0-6.0-2.72,,,img2/jap/8.jpg,,141091,,302,image-keyboard-response,,
18,condition1,D,J,,,,0.0-6.0-3.72,d,451,"Press S if the two images were the same, Press D if the two images were different.",,141543,,303,html-keyboard-response,,
18,condition1,,,,,,0.0-6.0-0.73,,,img2/faces/7.jpg,,141763,,304,image-keyboard-response,,
18,condition1,,,,,,0.0-6.0-1.73,,,+,,142083,,305,html-keyboard-response,,
18,condition1,,,,,,0.0-6.0-2.73,,,img2/faces/7.jpg,,142298,,306,image-keyboard-response,,
18,condition1,S,H,,,,0.0-6.0-3.73,s,260,"Press S if the two images were the same, Press D if the two images were different.",,142558,,307,html-keyboard-response,,
18,condition1,,,,,,0.0-6.0-0.74,,,img2/faces/1.jpg,,142761,,308,image-keyboard-response,,
18,condition1,,,,,,0.0-6.0-1.74,,,+,,143066,,309,html-keyboard-response,,
18,condition1,,,,,,0.0-6.0-2.74,,,img2/faces/7.jpg,,143280,,310,image-keyboard-response,,
18,condition1,D,H,,,,0.0-6.0-3.74,d,415,"Press S if the two images were the same, Press D if the two images were different.",,143696,,311,html-keyboard-response,,
18,condition1,,,,,,0.0-6.0-0.75,,,img2/false/1.jpg,,143909,,312,image-keyboard-response,,
18,condition1,,,,,,0.0-6.0-1.75,,,+,,144215,,313,html-keyboard-response,,
18,condition1,,,,,,0.0-6.0-2.75,,,img2/false/7.jpg,,144430,,314,image-keyboard-response,,
18,condition1,D,M,,,,0.0-6.0-3.75,d,471,"Press S if the two images were the same, Press D if the two images were different.",,144902,,315,html-keyboard-response,,
18,condition1,,,,,,0.0-6.0-0.76,,,img2/Mjap/14.jpg,,145108,,316,image-keyboard-response,,
18,condition1,,,,,,0.0-6.0-1.76,,,+,,145414,,317,html-keyboard-response,,
18,condition1,,,,,,0.0-6.0-2.76,,,img2/Mjap/13.jpg,,145631,,318,image-keyboard-response,,
18,condition1,D,J,,,,0.0-6.0-3.76,d,463,"Press S if the two images were the same, Press D if the two images were different.",,146095,,319,html-keyboard-response,,
18,condition1,,,,,,0.0-6.0-0.77,,,img2/french/1.jpg,,146308,,320,image-keyboard-response,,
18,condition1,,,,,,0.0-6.0-1.77,,,+,,146616,,321,html-keyboard-response,,
18,condition1,,,,,,0.0-6.0-2.77,,,img2/Mfrench/1.jpg,,146835,,322,image-keyboard-response,,
18,condition1,S,R,,,,0.0-6.0-3.77,d,324,"Press S if the two images were the same, Press D if the two images were different.",,147167,,323,html-keyboard-response,,
18,condition1,,,,,,0.0-6.0-0.78,,,img2/Mfalse/4.jpg,,147369,,324,image-keyboard-response,,
18,condition1,,,,,,0.0-6.0-1.78,,,+,,147679,,325,html-keyboard-response,,
18,condition1,,,,,,0.0-6.0-2.78,,,img2/Mfalse/12.jpg,,147894,,326,image-keyboard-response,,
18,condition1,D,M,,,,0.0-6.0-3.78,d,503,"Press S if the two images were the same, Press D if the two images were different.",,148398,,327,html-keyboard-response,,
18,condition1,,,,,,0.0-6.0-0.79,,,img2/Mfalse/14.jpg,,148617,,328,image-keyboard-response,,
18,condition1,,,,,,0.0-6.0-1.79,,,+,,148938,,329,html-keyboard-response,,
18,condition1,,,,,,0.0-6.0-2.79,,,img2/Mfalse/13.jpg,,149154,,330,image-keyboard-response,,
18,condition1,D,M,,,,0.0-6.0-3.79,d,540,"Press S if the two images were the same, Press D if the two images were different.",,149694,,331,html-keyboard-response,,
18,condition1,,,,,,0.0-6.0-0.80,,,img2/tools/1.jpg,,149907,,332,image-keyboard-response,,
18,condition1,,,,,,0.0-6.0-1.80,,,+,,150213,,333,html-keyboard-response,,
18,condition1,,,,,,0.0-6.0-2.80,,,img2/Mtools/1.jpg,,150429,,334,image-keyboard-response,,
18,condition1,S,O,,,,0.0-6.0-3.80,d,530,"Press S if the two images were the same, Press D if the two images were different.",,150959,,335,html-keyboard-response,,
18,condition1,,,,,,0.0-6.0-0.81,,,img2/Mjap/3.jpg,,151169,,336,image-keyboard-response,,
18,condition1,,,,,,0.0-6.0-1.81,,,+,,151479,,337,html-keyboard-response,,
18,condition1,,,,,,0.0-6.0-2.81,,,img2/Mjap/13.jpg,,151692,,338,image-keyboard-response,,
18,condition1,D,J,,,,0.0-6.0-3.81,d,372,"Press S if the two images were the same, Press D if the two images were different.",,152065,,339,html-keyboard-response,,
18,condition1,,,,,,0.0-6.0-0.82,,,img2/false/13.jpg,,152278,,340,image-keyboard-response,,
18,condition1,,,,,,0.0-6.0-1.82,,,+,,152586,,341,html-keyboard-response,,
18,condition1,,,,,,0.0-6.0-2.82,,,img2/false/13.jpg,,152798,,342,image-keyboard-response,,
18,condition1,S,M,,,,0.0-6.0-3.82,d,520,"Press S if the two images were the same, Press D if the two images were different.",,153319,,343,html-keyboard-response,,
18,condition1,,,,,,0.0-6.0-0.83,,,img2/french/10.jpg,,153526,,344,image-keyboard-response,,
18,condition1,,,,,,0.0-6.0-1.83,,,+,,153828,,345,html-keyboard-response,,
18,condition1,,,,,,0.0-6.0-2.83,,,img2/french/12.jpg,,154043,,346,image-keyboard-response,,
18,condition1,D,R,,,,0.0-6.0-3.83,d,1046,"Press S if the two images were the same, Press D if the two images were different.",,155089,,347,html-keyboard-response,,
18,condition1,,,,,,0.0-6.0-0.84,,,img2/tools/13.jpg,,155300,,348,image-keyboard-response,,
18,condition1,,,,,,0.0-6.0-1.84,,,+,,155610,,349,html-keyboard-response,,
18,condition1,,,,,,0.0-6.0-2.84,,,img2/tools/11.jpg,,155828,,350,image-keyboard-response,,
18,condition1,D,O,,,,0.0-6.0-3.84,d,466,"Press S if the two images were the same, Press D if the two images were different.",,156294,,351,html-keyboard-response,,
18,condition1,,,,,,0.0-6.0-0.85,,,img2/jap/9.jpg,,156508,,352,image-keyboard-response,,
18,condition1,,,,,,0.0-6.0-1.85,,,+,,156821,,353,html-keyboard-response,,
18,condition1,,,,,,0.0-6.0-2.85,,,img2/Mjap/9.jpg,,157036,,354,image-keyboard-response,,
18,condition1,S,J,,,,0.0-6.0-3.85,s,850,"Press S if the two images were the same, Press D if the two images were different.",,157886,,355,html-keyboard-response,,
18,condition1,,,,,,0.0-6.0-0.86,,,img2/Mfrench/11.jpg,,158108,,356,image-keyboard-response,,
18,condition1,,,,,,0.0-6.0-1.86,,,+,,158421,,357,html-keyboard-response,,
18,condition1,,,,,,0.0-6.0-2.86,,,img2/Mfrench/6.jpg,,158636,,358,image-keyboard-response,,
18,condition1,D,R,,,,0.0-6.0-3.86,d,497,"Press S if the two images were the same, Press D if the two images were different.",,159134,,359,html-keyboard-response,,
18,condition1,,,,,,0.0-6.0-0.87,,,img2/faces/4.jpg,,159343,,360,image-keyboard-response,,
18,condition1,,,,,,0.0-6.0-1.87,,,+,,159650,,361,html-keyboard-response,,
18,condition1,,,,,,0.0-6.0-2.87,,,img2/faces/12.jpg,,159865,,362,image-keyboard-response,,
18,condition1,D,H,,,,0.0-6.0-3.87,d,1149,"Press S if the two images were the same, Press D if the two images were different.",,161014,,363,html-keyboard-response,,
18,condition1,,,,,,0.0-6.0-0.88,,,img2/jap/11.jpg,,161224,,364,image-keyboard-response,,
18,condition1,,,,,,0.0-6.0-1.88,,,+,,161530,,365,html-keyboard-response,,
18,condition1,,,,,,0.0-6.0-2.88,,,img2/Mjap/11.jpg,,161746,,366,image-keyboard-response,,
18,condition1,S,J,,,,0.0-6.0-3.88,s,399,"Press S if the two images were the same, Press D if the two images were different.",,162145,,367,html-keyboard-response,,
18,condition1,,,,,,0.0-6.0-0.89,,,img2/Mtools/10.jpg,,162363,,368,image-keyboard-response,,
18,condition1,,,,,,0.0-6.0-1.89,,,+,,162669,,369,html-keyboard-response,,
18,condition1,,,,,,0.0-6.0-2.89,,,img2/Mtools/12.jpg,,162886,,370,image-keyboard-response,,
18,condition1,D,O,,,,0.0-6.0-3.89,d,1312,"Press S if the two images were the same, Press D if the two images were different.",,164199,,371,html-keyboard-response,,
18,condition1,,,,,,0.0-6.0-0.90,,,img2/Mfrench/6.jpg,,164405,,372,image-keyboard-response,,
18,condition1,,,,,,0.0-6.0-1.90,,,+,,164713,,373,html-keyboard-response,,
18,condition1,,,,,,0.0-6.0-2.90,,,img2/Mfrench/14.jpg,,164928,,374,image-keyboard-response,,
18,condition1,D,R,,,,0.0-6.0-3.90,d,511,"Press S if the two images were the same, Press D if the two images were different.",,165439,,375,html-keyboard-response,,
18,condition1,,,,,,0.0-6.0-0.91,,,img2/Mjap/1.jpg,,165656,,376,image-keyboard-response,,
18,condition1,,,,,,0.0-6.0-1.91,,,+,,165965,,377,html-keyboard-response,,
18,condition1,,,,,,0.0-6.0-2.91,,,img2/Mjap/7.jpg,,166166,,378,image-keyboard-response,,
18,condition1,D,J,,,,0.0-6.0-3.91,d,560,"Press S if the two images were the same, Press D if the two images were different.",,166727,,379,html-keyboard-response,,
18,condition1,,,,,,0.0-6.0-0.92,,,img2/tools/7.jpg,,166939,,380,image-keyboard-response,,
18,condition1,,,,,,0.0-6.0-1.92,,,+,,167246,,381,html-keyboard-response,,
18,condition1,,,,,,0.0-6.0-2.92,,,img2/tools/7.jpg,,167462,,382,image-keyboard-response,,
18,condition1,S,O,,,,0.0-6.0-3.92,s,455,"Press S if the two images were the same, Press D if the two images were different.",,167918,,383,html-keyboard-response,,
18,condition1,,,,,,0.0-6.0-0.93,,,img2/faces/3.jpg,,168137,,384,image-keyboard-response,,
18,condition1,,,,,,0.0-6.0-1.93,,,+,,168445,,385,html-keyboard-response,,
18,condition1,,,,,,0.0-6.0-2.93,,,img2/faces/13.jpg,,168660,,386,image-keyboard-response,,
18,condition1,D,H,,,,0.0-6.0-3.93,d,418,"Press S if the two images were the same, Press D if the two images were different.",,169078,,387,html-keyboard-response,,
18,condition1,,,,,,0.0-6.0-0.94,,,img2/faces/3.jpg,,169290,,388,image-keyboard-response,,
18,condition1,,,,,,0.0-6.0-1.94,,,+,,169598,,389,html-keyboard-response,,
18,condition1,,,,,,0.0-6.0-2.94,,,img2/faces/3.jpg,,169812,,390,image-keyboard-response,,
18,condition1,S,H,,,,0.0-6.0-3.94,s,378,"Press S if the two images were the same, Press D if the two images were different.",,170191,,391,html-keyboard-response,,
18,condition1,,,,,,0.0-6.0-0.95,,,img2/false/12.jpg,,170409,,392,image-keyboard-response,,
18,condition1,,,,,,0.0-6.0-1.95,,,+,,170719,,393,html-keyboard-response,,
18,condition1,,,,,,0.0-6.0-2.95,,,img2/Mfalse/12.jpg,,170936,,394,image-keyboard-response,,
18,condition1,S,M,,,,0.0-6.0-3.95,d,454,"Press S if the two images were the same, Press D if the two images were different.",,171390,,395,html-keyboard-response,,
18,condition1,,,,,,0.0-6.0-0.96,,,img2/Mjap/11.jpg,,171609,,396,image-keyboard-response,,
18,condition1,,,,,,0.0-6.0-1.96,,,+,,171917,,397,html-keyboard-response,,
18,condition1,,,,,,0.0-6.0-2.96,,,img2/Mjap/6.jpg,,172132,,398,image-keyboard-response,,
18,condition1,D,J,,,,0.0-6.0-3.96,d,461,"Press S if the two images were the same, Press D if the two images were different.",,172593,,399,html-keyboard-response,,
18,condition1,,,,,,0.0-6.0-0.97,,,img2/faces/7.jpg,,172796,,400,image-keyboard-response,,
18,condition1,,,,,,0.0-6.0-1.97,,,+,,173106,,401,html-keyboard-response,,
18,condition1,,,,,,0.0-6.0-2.97,,,img2/faces/13.jpg,,173322,,402,image-keyboard-response,,
18,condition1,D,H,,,,0.0-6.0-3.97,d,516,"Press S if the two images were the same, Press D if the two images were different.",,173839,,403,html-keyboard-response,,
18,condition1,,,,,,0.0-6.0-0.98,,,img2/false/13.jpg,,174047,,404,image-keyboard-response,,
18,condition1,,,,,,0.0-6.0-1.98,,,+,,174353,,405,html-keyboard-response,,
18,condition1,,,,,,0.0-6.0-2.98,,,img2/false/11.jpg,,174569,,406,image-keyboard-response,,
18,condition1,D,M,,,,0.0-6.0-3.98,d,452,"Press S if the two images were the same, Press D if the two images were different.",,175022,,407,html-keyboard-response,,
18,condition1,,,,,,0.0-6.0-0.99,,,img2/french/4.jpg,,175229,,408,image-keyboard-response,,
18,condition1,,,,,,0.0-6.0-1.99,,,+,,175535,,409,html-keyboard-response,,
18,condition1,,,,,,0.0-6.0-2.99,,,img2/Mfrench/4.jpg,,175751,,410,image-keyboard-response,,
18,condition1,S,R,,,,0.0-6.0-3.99,d,311,"Press S if the two images were the same, Press D if the two images were different.",,176063,,411,html-keyboard-response,,
18,condition1,,,,,,0.0-6.0-0.100,,,img2/jap/10.jpg,,176275,,412,image-keyboard-response,,
18,condition1,,,,,,0.0-6.0-1.100,,,+,,176584,,413,html-keyboard-response,,
18,condition1,,,,,,0.0-6.0-2.100,,,img2/Mjap/10.jpg,,176800,,414,image-keyboard-response,,
18,condition1,S,J,,,,0.0-6.0-3.100,d,543,"Press S if the two images were the same, Press D if the two images were different.",,177344,,415,html-keyboard-response,,
18,condition1,,,,,,0.0-6.0-0.101,,,img2/french/2.jpg,,177557,,416,image-keyboard-response,,
18,condition1,,,,,,0.0-6.0-1.101,,,+,,177865,,417,html-keyboard-response,,
18,condition1,,,,,,0.0-6.0-2.101,,,img2/french/9.jpg,,178081,,418,image-keyboard-response,,
18,condition1,D,R,,,,0.0-6.0-3.101,d,357,"Press S if the two images were the same, Press D if the two images were different.",,178438,,419,html-keyboard-response,,
18,condition1,,,,,,0.0-6.0-0.102,,,img2/tools/1.jpg,,178648,,420,image-keyboard-response,,
18,condition1,,,,,,0.0-6.0-1.102,,,+,,178955,,421,html-keyboard-response,,
18,condition1,,,,,,0.0-6.0-2.102,,,img2/tools/7.jpg,,179157,,422,image-keyboard-response,,
18,condition1,D,O,,,,0.0-6.0-3.102,d,345,"Press S if the two images were the same, Press D if the two images were different.",,179503,,423,html-keyboard-response,,
18,condition1,,,,,,0.0-6.0-0.103,,,img2/french/11.jpg,,179711,,424,image-keyboard-response,,
18,condition1,,,,,,0.0-6.0-1.103,,,+,,180019,,425,html-keyboard-response,,
18,condition1,,,,,,0.0-6.0-2.103,,,img2/french/6.jpg,,180234,,426,image-keyboard-response,,
18,condition1,D,R,,,,0.0-6.0-3.103,d,437,"Press S if the two images were the same, Press D if the two images were different.",,180672,,427,html-keyboard-response,,
18,condition1,,,,,,0.0-6.0-0.104,,,img2/Mjap/5.jpg,,180881,,428,image-keyboard-response,,
18,condition1,,,,,,0.0-6.0-1.104,,,+,,181187,,429,html-keyboard-response,,
18,condition1,,,,,,0.0-6.0-2.104,,,img2/Mjap/12.jpg,,181403,,430,image-keyboard-response,,
18,condition1,D,J,,,,0.0-6.0-3.104,d,355,"Press S if the two images were the same, Press D if the two images were different.",,181758,,431,html-keyboard-response,,
18,condition1,,,,,,0.0-6.0-0.105,,,img2/Mfaces/3.jpg,,181971,,432,image-keyboard-response,,
18,condition1,,,,,,0.0-6.0-1.105,,,+,,182278,,433,html-keyboard-response,,
18,condition1,,,,,,0.0-6.0-2.105,,,img2/Mfaces/13.jpg,,182494,,434,image-keyboard-response,,
18,condition1,D,H,,,,0.0-6.0-3.105,d,363,"Press S if the two images were the same, Press D if the two images were different.",,182857,,435,html-keyboard-response,,
18,condition1,,,,,,0.0-6.0-0.106,,,img2/jap/5.jpg,,183064,,436,image-keyboard-response,,
18,condition1,,,,,,0.0-6.0-1.106,,,+,,183373,,437,html-keyboard-response,,
18,condition1,,,,,,0.0-6.0-2.106,,,img2/Mjap/5.jpg,,183587,,438,image-keyboard-response,,
18,condition1,S,J,,,,0.0-6.0-3.106,s,443,"Press S if the two images were the same, Press D if the two images were different.",,184030,,439,html-keyboard-response,,
18,condition1,,,,,,0.0-6.0-0.107,,,img2/jap/13.jpg,,184252,,440,image-keyboard-response,,
18,condition1,,,,,,0.0-6.0-1.107,,,+,,184558,,441,html-keyboard-response,,
18,condition1,,,,,,0.0-6.0-2.107,,,img2/jap/13.jpg,,184774,,442,image-keyboard-response,,
18,condition1,S,J,,,,0.0-6.0-3.107,s,390,"Press S if the two images were the same, Press D if the two images were different.",,185166,,443,html-keyboard-response,,
18,condition1,,,,,,0.0-6.0-0.108,,,img2/Mfaces/7.jpg,,185371,,444,image-keyboard-response,,
18,condition1,,,,,,0.0-6.0-1.108,,,+,,185679,,445,html-keyboard-response,,
18,condition1,,,,,,0.0-6.0-2.108,,,img2/Mfaces/13.jpg,,185894,,446,image-keyboard-response,,
18,condition1,D,H,,,,0.0-6.0-3.108,d,384,"Press S if the two images were the same, Press D if the two images were different.",,186278,,447,html-keyboard-response,,
18,condition1,,,,,,0.0-6.0-0.109,,,img2/faces/13.jpg,,186493,,448,image-keyboard-response,,
18,condition1,,,,,,0.0-6.0-1.109,,,+,,186802,,449,html-keyboard-response,,
18,condition1,,,,,,0.0-6.0-2.109,,,img2/faces/13.jpg,,187014,,450,image-keyboard-response,,
18,condition1,S,H,,,,0.0-6.0-3.109,s,666,"Press S if the two images were the same, Press D if the two images were different.",,187681,,451,html-keyboard-response,,
18,condition1,,,,,,0.0-6.0-0.110,,,img2/Mfrench/8.jpg,,187892,,452,image-keyboard-response,,
18,condition1,,,,,,0.0-6.0-1.110,,,+,,188199,,453,html-keyboard-response,,
18,condition1,,,,,,0.0-6.0-2.110,,,img2/Mfrench/9.jpg,,188415,,454,image-keyboard-response,,
18,condition1,D,R,,,,0.0-6.0-3.110,d,1103,"Press S if the two images were the same, Press D if the two images were different.",,189518,,455,html-keyboard-response,,
18,condition1,,,,,,0.0-6.0-0.111,,,img2/tools/9.jpg,,189729,,456,image-keyboard-response,,
18,condition1,,,,,,0.0-6.0-1.111,,,+,,190034,,457,html-keyboard-response,,
18,condition1,,,,,,0.0-6.0-2.111,,,img2/tools/12.jpg,,190250,,458,image-keyboard-response,,
18,condition1,D,O,,,,0.0-6.0-3.111,d,604,"Press S if the two images were the same, Press D if the two images were different.",,190854,,459,html-keyboard-response,,
18,condition1,,,,,,0.0-6.0-0.112,,,img2/faces/11.jpg,,191068,,460,image-keyboard-response,,
18,condition1,,,,,,0.0-6.0-1.112,,,+,,191376,,461,html-keyboard-response,,
18,condition1,,,,,,0.0-6.0-2.112,,,img2/faces/6.jpg,,191590,,462,image-keyboard-response,,
18,condition1,D,H,,,,0.0-6.0-3.112,d,456,"Press S if the two images were the same, Press D if the two images were different.",,192046,,463,html-keyboard-response,,
18,condition1,,,,,,0.0-6.0-0.113,,,img2/faces/13.jpg,,192254,,464,image-keyboard-response,,
18,condition1,,,,,,0.0-6.0-1.113,,,+,,192561,,465,html-keyboard-response,,
18,condition1,,,,,,0.0-6.0-2.113,,,img2/Mfaces/13.jpg,,192776,,466,image-keyboard-response,,
18,condition1,S,H,,,,0.0-6.0-3.113,d,495,"Press S if the two images were the same, Press D if the two images were different.",,193271,,467,html-keyboard-response,,
18,condition1,,,,,,0.0-6.0-0.114,,,img2/false/9.jpg,,193482,,468,image-keyboard-response,,
18,condition1,,,,,,0.0-6.0-1.114,,,+,,193790,,469,html-keyboard-response,,
18,condition1,,,,,,0.0-6.0-2.114,,,img2/false/12.jpg,,194004,,470,image-keyboard-response,,
18,condition1,D,M,,,,0.0-6.0-3.114,d,474,"Press S if the two images were the same, Press D if the two images were different.",,194478,,471,html-keyboard-response,,
18,condition1,,,,,,0.0-6.0-0.115,,,img2/Mtools/11.jpg,,194698,,472,image-keyboard-response,,
18,condition1,,,,,,0.0-6.0-1.115,,,+,,195007,,473,html-keyboard-response,,
18,condition1,,,,,,0.0-6.0-2.115,,,img2/Mtools/6.jpg,,195223,,474,image-keyboard-response,,
18,condition1,D,O,,,,0.0-6.0-3.115,d,383,"Press S if the two images were the same, Press D if the two images were different.",,195607,,475,html-keyboard-response,,
18,condition1,,,,,,0.0-6.0-0.116,,,img2/french/2.jpg,,195820,,476,image-keyboard-response,,
18,condition1,,,,,,0.0-6.0-1.116,,,+,,196127,,477,html-keyboard-response,,
18,condition1,,,,,,0.0-6.0-2.116,,,img2/french/2.jpg,,196340,,478,image-keyboard-response,,
18,condition1,S,R,,,,0.0-6.0-3.116,s,419,"Press S if the two images were the same, Press D if the two images were different.",,196760,,479,html-keyboard-response,,
18,condition1,,,,,,0.0-6.0-0.117,,,img2/french/4.jpg,,196972,,480,image-keyboard-response,,
18,condition1,,,,,,0.0-6.0-1.117,,,+,,197282,,481,html-keyboard-response,,
18,condition1,,,,,,0.0-6.0-2.117,,,img2/french/4.jpg,,197498,,482,image-keyboard-response,,
18,condition1,S,R,,,,0.0-6.0-3.117,s,327,"Press S if the two images were the same, Press D if the two images were different.",,197825,,483,html-keyboard-response,,
18,condition1,,,,,,0.0-6.0-0.118,,,img2/Mfaces/14.jpg,,198036,,484,image-keyboard-response,,
18,condition1,,,,,,0.0-6.0-1.118,,,+,,198346,,485,html-keyboard-response,,
18,condition1,,,,,,0.0-6.0-2.118,,,img2/Mfaces/13.jpg,,198560,,486,image-keyboard-response,,
18,condition1,D,H,,,,0.0-6.0-3.118,d,374,"Press S if the two images were the same, Press D if the two images were different.",,198934,,487,html-keyboard-response,,
18,condition1,,,,,,0.0-6.0-0.119,,,img2/Mtools/4.jpg,,199154,,488,image-keyboard-response,,
18,condition1,,,,,,0.0-6.0-1.119,,,+,,199475,,489,html-keyboard-response,,
18,condition1,,,,,,0.0-6.0-2.119,,,img2/Mtools/12.jpg,,199678,,490,image-keyboard-response,,
18,condition1,D,O,,,,0.0-6.0-3.119,d,473,"Press S if the two images were the same, Press D if the two images were different.",,200151,,491,html-keyboard-response,,
18,condition1,,,,,,0.0-6.0-0.120,,,img2/tools/1.jpg,,200371,,492,image-keyboard-response,,
18,condition1,,,,,,0.0-6.0-1.120,,,+,,200679,,493,html-keyboard-response,,
18,condition1,,,,,,0.0-6.0-2.120,,,img2/tools/1.jpg,,200898,,494,image-keyboard-response,,
18,condition1,S,O,,,,0.0-6.0-3.120,s,420,"Press S if the two images were the same, Press D if the two images were different.",,201318,,495,html-keyboard-response,,
18,condition1,,,,,,0.0-6.0-0.121,,,img2/jap/7.jpg,,201528,,496,image-keyboard-response,,
18,condition1,,,,,,0.0-6.0-1.121,,,+,,201837,,497,html-keyboard-response,,
18,condition1,,,,,,0.0-6.0-2.121,,,img2/jap/13.jpg,,202049,,498,image-keyboard-response,,
18,condition1,D,J,,,,0.0-6.0-3.121,d,652,"Press S if the two images were the same, Press D if the two images were different.",,202702,,499,html-keyboard-response,,
18,condition1,,,,,,0.0-6.0-0.122,,,img2/false/2.jpg,,202911,,500,image-keyboard-response,,
18,condition1,,,,,,0.0-6.0-1.122,,,+,,203216,,501,html-keyboard-response,,
18,condition1,,,,,,0.0-6.0-2.122,,,img2/false/9.jpg,,203431,,502,image-keyboard-response,,
18,condition1,D,M,,,,0.0-6.0-3.122,d,443,"Press S if the two images were the same, Press D if the two images were different.",,203874,,503,html-keyboard-response,,
18,condition1,,,,,,0.0-6.0-0.123,,,img2/french/8.jpg,,204091,,504,image-keyboard-response,,
18,condition1,,,,,,0.0-6.0-1.123,,,+,,204398,,505,html-keyboard-response,,
18,condition1,,,,,,0.0-6.0-2.123,,,img2/french/9.jpg,,204612,,506,image-keyboard-response,,
18,condition1,D,R,,,,0.0-6.0-3.123,d,361,"Press S if the two images were the same, Press D if the two images were different.",,204974,,507,html-keyboard-response,,
18,condition1,,,,,,0.0-6.0-0.124,,,img2/Mfaces/4.jpg,,205183,,508,image-keyboard-response,,
18,condition1,,,,,,0.0-6.0-1.124,,,+,,205487,,509,html-keyboard-response,,
18,condition1,,,,,,0.0-6.0-2.124,,,img2/Mfaces/12.jpg,,205700,,510,image-keyboard-response,,
18,condition1,D,H,,,,0.0-6.0-3.124,d,372,"Press S if the two images were the same, Press D if the two images were different.",,206073,,511,html-keyboard-response,,
18,condition1,,,,,,0.0-6.0-0.125,,,img2/Mfrench/1.jpg,,206290,,512,image-keyboard-response,,
18,condition1,,,,,,0.0-6.0-1.125,,,+,,206597,,513,html-keyboard-response,,
18,condition1,,,,,,0.0-6.0-2.125,,,img2/Mfrench/7.jpg,,206813,,514,image-keyboard-response,,
18,condition1,D,R,,,,0.0-6.0-3.125,d,458,"Press S if the two images were the same, Press D if the two images were different.",,207271,,515,html-keyboard-response,,
18,condition1,,,,,,0.0-6.0-0.126,,,img2/jap/2.jpg,,207490,,516,image-keyboard-response,,
18,condition1,,,,,,0.0-6.0-1.126,,,+,,207797,,517,html-keyboard-response,,
18,condition1,,,,,,0.0-6.0-2.126,,,img2/jap/9.jpg,,208014,,518,image-keyboard-response,,
18,condition1,D,J,,,,0.0-6.0-3.126,d,360,"Press S if the two images were the same, Press D if the two images were different.",,208375,,519,html-keyboard-response,,
18,condition1,,,,,,0.0-6.0-0.127,,,img2/false/7.jpg,,208587,,520,image-keyboard-response,,
18,condition1,,,,,,0.0-6.0-1.127,,,+,,208895,,521,html-keyboard-response,,
18,condition1,,,,,,0.0-6.0-2.127,,,img2/Mfalse/7.jpg,,209112,,522,image-keyboard-response,,
18,condition1,S,M,,,,0.0-6.0-3.127,d,550,"Press S if the two images were the same, Press D if the two images were different.",,209662,,523,html-keyboard-response,,
18,condition1,,,,,,0.0-6.0-0.128,,,img2/false/4.jpg,,209869,,524,image-keyboard-response,,
18,condition1,,,,,,0.0-6.0-1.128,,,+,,210175,,525,html-keyboard-response,,
18,condition1,,,,,,0.0-6.0-2.128,,,img2/Mfalse/4.jpg,,210391,,526,image-keyboard-response,,
18,condition1,S,M,,,,0.0-6.0-3.128,d,423,"Press S if the two images were the same, Press D if the two images were different.",,210814,,527,html-keyboard-response,,
18,condition1,,,,,,0.0-6.0-0.129,,,img2/french/8.jpg,,211023,,528,image-keyboard-response,,
18,condition1,,,,,,0.0-6.0-1.129,,,+,,211330,,529,html-keyboard-response,,
18,condition1,,,,,,0.0-6.0-2.129,,,img2/Mfrench/8.jpg,,211546,,530,image-keyboard-response,,
18,condition1,S,R,,,,0.0-6.0-3.129,d,379,"Press S if the two images were the same, Press D if the two images were different.",,211926,,531,html-keyboard-response,,
18,condition1,,,,,,0.0-6.0-0.130,,,img2/french/6.jpg,,212133,,532,image-keyboard-response,,
18,condition1,,,,,,0.0-6.0-1.130,,,+,,212442,,533,html-keyboard-response,,
18,condition1,,,,,,0.0-6.0-2.130,,,img2/Mfrench/6.jpg,,212653,,534,image-keyboard-response,,
18,condition1,S,R,,,,0.0-6.0-3.130,d,474,"Press S if the two images were the same, Press D if the two images were different.",,213127,,535,html-keyboard-response,,
18,condition1,,,,,,0.0-6.0-0.131,,,img2/jap/5.jpg,,213335,,536,image-keyboard-response,,
18,condition1,,,,,,0.0-6.0-1.131,,,+,,213640,,537,html-keyboard-response,,
18,condition1,,,,,,0.0-6.0-2.131,,,img2/jap/5.jpg,,213858,,538,image-keyboard-response,,
18,condition1,S,J,,,,0.0-6.0-3.131,s,277,"Press S if the two images were the same, Press D if the two images were different.",,214135,,539,html-keyboard-response,,
18,condition1,,,,,,0.0-6.0-0.132,,,img2/false/6.jpg,,214345,,540,image-keyboard-response,,
18,condition1,,,,,,0.0-6.0-1.132,,,+,,214656,,541,html-keyboard-response,,
18,condition1,,,,,,0.0-6.0-2.132,,,img2/false/6.jpg,,214872,,542,image-keyboard-response,,
18,condition1,S,M,,,,0.0-6.0-3.132,d,494,"Press S if the two images were the same, Press D if the two images were different.",,215366,,543,html-keyboard-response,,
18,condition1,,,,,,0.0-6.0-0.133,,,img2/tools/2.jpg,,215569,,544,image-keyboard-response,,
18,condition1,,,,,,0.0-6.0-1.133,,,+,,215877,,545,html-keyboard-response,,
18,condition1,,,,,,0.0-6.0-2.133,,,img2/tools/2.jpg,,216094,,546,image-keyboard-response,,
18,condition1,S,O,,,,0.0-6.0-3.133,s,480,"Press S if the two images were the same, Press D if the two images were different.",,216575,,547,html-keyboard-response,,
18,condition1,,,,,,0.0-6.0-0.134,,,img2/Mfaces/10.jpg,,216793,,548,image-keyboard-response,,
18,condition1,,,,,,0.0-6.0-1.134,,,+,,217105,,549,html-keyboard-response,,
18,condition1,,,,,,0.0-6.0-2.134,,,img2/Mfaces/12.jpg,,217320,,550,image-keyboard-response,,
18,condition1,D,H,,,,0.0-6.0-3.134,d,463,"Press S if the two images were the same, Press D if the two images were different.",,217783,,551,html-keyboard-response,,
18,condition1,,,,,,0.0-6.0-0.135,,,img2/jap/10.jpg,,218000,,552,image-keyboard-response,,
18,condition1,,,,,,0.0-6.0-1.135,,,+,,218322,,553,html-keyboard-response,,
18,condition1,,,,,,0.0-6.0-2.135,,,img2/jap/12.jpg,,218537,,554,image-keyboard-response,,
18,condition1,D,J,,,,0.0-6.0-3.135,d,558,"Press S if the two images were the same, Press D if the two images were different.",,219096,,555,html-keyboard-response,,
18,condition1,,,,,,0.0-6.0-0.136,,,img2/jap/12.jpg,,219322,,556,image-keyboard-response,,
18,condition1,,,,,,0.0-6.0-1.136,,,+,,219630,,557,html-keyboard-response,,
18,condition1,,,,,,0.0-6.0-2.136,,,img2/jap/12.jpg,,219845,,558,image-keyboard-response,,
18,condition1,S,J,,,,0.0-6.0-3.136,s,466,"Press S if the two images were the same, Press D if the two images were different.",,220311,,559,html-keyboard-response,,
18,condition1,,,,,,0.0-6.0-0.137,,,img2/Mfalse/5.jpg,,220521,,560,image-keyboard-response,,
18,condition1,,,,,,0.0-6.0-1.137,,,+,,220828,,561,html-keyboard-response,,
18,condition1,,,,,,0.0-6.0-2.137,,,img2/Mfalse/12.jpg,,221046,,562,image-keyboard-response,,
18,condition1,D,M,,,,0.0-6.0-3.137,d,679,"Press S if the two images were the same, Press D if the two images were different.",,221726,,563,html-keyboard-response,,
18,condition1,,,,,,0.0-6.0-0.138,,,img2/false/5.jpg,,221937,,564,image-keyboard-response,,
18,condition1,,,,,,0.0-6.0-1.138,,,+,,222243,,565,html-keyboard-response,,
18,condition1,,,,,,0.0-6.0-2.138,,,img2/Mfalse/5.jpg,,222458,,566,image-keyboard-response,,
18,condition1,S,M,,,,0.0-6.0-3.138,d,763,"Press S if the two images were the same, Press D if the two images were different.",,223222,,567,html-keyboard-response,,
18,condition1,,,,,,0.0-6.0-0.139,,,img2/false/6.jpg,,223430,,568,image-keyboard-response,,
18,condition1,,,,,,0.0-6.0-1.139,,,+,,223742,,569,html-keyboard-response,,
18,condition1,,,,,,0.0-6.0-2.139,,,img2/false/14.jpg,,223957,,570,image-keyboard-response,,
18,condition1,D,M,,,,0.0-6.0-3.139,d,717,"Press S if the two images were the same, Press D if the two images were different.",,224674,,571,html-keyboard-response,,
18,condition1,,,,,,0.0-6.0-0.140,,,img2/tools/12.jpg,,224879,,572,image-keyboard-response,,
18,condition1,,,,,,0.0-6.0-1.140,,,+,,225183,,573,html-keyboard-response,,
18,condition1,,,,,,0.0-6.0-2.140,,,img2/tools/8.jpg,,225398,,574,image-keyboard-response,,
18,condition1,D,O,,,,0.0-6.0-3.140,d,544,"Press S if the two images were the same, Press D if the two images were different.",,225942,,575,html-keyboard-response,,
18,condition1,,,,,,0.0-6.0-0.141,,,img2/jap/12.jpg,,226150,,576,image-keyboard-response,,
18,condition1,,,,,,0.0-6.0-1.141,,,+,,226459,,577,html-keyboard-response,,
18,condition1,,,,,,0.0-6.0-2.141,,,img2/Mjap/12.jpg,,226677,,578,image-keyboard-response,,
18,condition1,S,J,,,,0.0-6.0-3.141,s,481,"Press S if the two images were the same, Press D if the two images were different.",,227159,,579,html-keyboard-response,,
18,condition1,,,,,,0.0-6.0-0.142,,,img2/jap/8.jpg,,227370,,580,image-keyboard-response,,
18,condition1,,,,,,0.0-6.0-1.142,,,+,,227680,,581,html-keyboard-response,,
18,condition1,,,,,,0.0-6.0-2.142,,,img2/jap/8.jpg,,227896,,582,image-keyboard-response,,
18,condition1,S,J,,,,0.0-6.0-3.142,s,502,"Press S if the two images were the same, Press D if the two images were different.",,228398,,583,html-keyboard-response,,
18,condition1,,,,,,0.0-6.0-0.143,,,img2/faces/3.jpg,,228605,,584,image-keyboard-response,,
18,condition1,,,,,,0.0-6.0-1.143,,,+,,228915,,585,html-keyboard-response,,
18,condition1,,,,,,0.0-6.0-2.143,,,img2/Mfaces/3.jpg,,229133,,586,image-keyboard-response,,
18,condition1,S,H,,,,0.0-6.0-3.143,d,2939,"Press S if the two images were the same, Press D if the two images were different.",,232073,,587,html-keyboard-response,,
18,condition1,,,,,,0.0-6.0-0.144,,,img2/false/4.jpg,,232286,,588,image-keyboard-response,,
18,condition1,,,,,,0.0-6.0-1.144,,,+,,232598,,589,html-keyboard-response,,
18,condition1,,,,,,0.0-6.0-2.144,,,img2/false/12.jpg,,232812,,590,image-keyboard-response,,
18,condition1,D,M,,,,0.0-6.0-3.144,d,1027,"Press S if the two images were the same, Press D if the two images were different.",,233839,,591,html-keyboard-response,,
18,condition1,,,,,,0.0-6.0-0.145,,,img2/Mfaces/5.jpg,,234059,,592,image-keyboard-response,,
18,condition1,,,,,,0.0-6.0-1.145,,,+,,234366,,593,html-keyboard-response,,
18,condition1,,,,,,0.0-6.0-2.145,,,img2/Mfaces/12.jpg,,234568,,594,image-keyboard-response,,
18,condition1,D,H,,,,0.0-6.0-3.145,d,703,"Press S if the two images were the same, Press D if the two images were different.",,235271,,595,html-keyboard-response,,
18,condition1,,,,,,0.0-6.0-0.146,,,img2/faces/6.jpg,,235488,,596,image-keyboard-response,,
18,condition1,,,,,,0.0-6.0-1.146,,,+,,235798,,597,html-keyboard-response,,
18,condition1,,,,,,0.0-6.0-2.146,,,img2/faces/6.jpg,,236012,,598,image-keyboard-response,,
18,condition1,S,H,,,,0.0-6.0-3.146,s,273,"Press S if the two images were the same, Press D if the two images were different.",,236286,,599,html-keyboard-response,,
18,condition1,,,,,,0.0-6.0-0.147,,,img2/false/10.jpg,,236502,,600,image-keyboard-response,,
18,condition1,,,,,,0.0-6.0-1.147,,,+,,236811,,601,html-keyboard-response,,
18,condition1,,,,,,0.0-6.0-2.147,,,img2/Mfalse/10.jpg,,237026,,602,image-keyboard-response,,
18,condition1,S,M,,,,0.0-6.0-3.147,d,956,"Press S if the two images were the same, Press D if the two images were different.",,237982,,603,html-keyboard-response,,
18,condition1,,,,,,0.0-6.0-0.148,,,img2/false/9.jpg,,238192,,604,image-keyboard-response,,
18,condition1,,,,,,0.0-6.0-1.148,,,+,,238499,,605,html-keyboard-response,,
18,condition1,,,,,,0.0-6.0-2.148,,,img2/false/9.jpg,,238713,,606,image-keyboard-response,,
18,condition1,S,M,,,,0.0-6.0-3.148,d,3357,"Press S if the two images were the same, Press D if the two images were different.",,242070,,607,html-keyboard-response,,
18,condition1,,,,,,0.0-6.0-0.149,,,img2/false/3.jpg,,242278,,608,image-keyboard-response,,
18,condition1,,,,,,0.0-6.0-1.149,,,+,,242584,,609,html-keyboard-response,,
18,condition1,,,,,,0.0-6.0-2.149,,,img2/false/3.jpg,,242795,,610,image-keyboard-response,,
18,condition1,S,M,,,,0.0-6.0-3.149,s,394,"Press S if the two images were the same, Press D if the two images were different.",,243189,,611,html-keyboard-response,,
18,condition1,,,,,,0.0-6.0-0.150,,,img2/Mfaces/8.jpg,,243406,,612,image-keyboard-response,,
18,condition1,,,,,,0.0-6.0-1.150,,,+,,243712,,613,html-keyboard-response,,
18,condition1,,,,,,0.0-6.0-2.150,,,img2/Mfaces/9.jpg,,243926,,614,image-keyboard-response,,
18,condition1,D,H,,,,0.0-6.0-3.150,d,5048,"Press S if the two images were the same, Press D if the two images were different.",,248975,,615,html-keyboard-response,,
18,condition1,,,,,,0.0-6.0-0.151,,,img2/Mfrench/2.jpg,,249190,,616,image-keyboard-response,,
18,condition1,,,,,,0.0-6.0-1.151,,,+,,249497,,617,html-keyboard-response,,
18,condition1,,,,,,0.0-6.0-2.151,,,img2/Mfrench/9.jpg,,249709,,618,image-keyboard-response,,
18,condition1,D,R,,,,0.0-6.0-3.151,d,607,"Press S if the two images were the same, Press D if the two images were different.",,250317,,619,html-keyboard-response,,
18,condition1,,,,,,0.0-6.0-0.152,,,img2/jap/3.jpg,,250528,,620,image-keyboard-response,,
18,condition1,,,,,,0.0-6.0-1.152,,,+,,250834,,621,html-keyboard-response,,
18,condition1,,,,,,0.0-6.0-2.152,,,img2/jap/13.jpg,,251051,,622,image-keyboard-response,,
18,condition1,D,J,,,,0.0-6.0-3.152,d,434,"Press S if the two images were the same, Press D if the two images were different.",,251486,,623,html-keyboard-response,,
18,condition1,,,,,,0.0-6.0-0.153,,,img2/french/8.jpg,,251700,,624,image-keyboard-response,,
18,condition1,,,,,,0.0-6.0-1.153,,,+,,252008,,625,html-keyboard-response,,
18,condition1,,,,,,0.0-6.0-2.153,,,img2/french/8.jpg,,252224,,626,image-keyboard-response,,
18,condition1,S,R,,,,0.0-6.0-3.153,s,325,"Press S if the two images were the same, Press D if the two images were different.",,252550,,627,html-keyboard-response,,
18,condition1,,,,,,0.0-6.0-0.154,,,img2/false/5.jpg,,252768,,628,image-keyboard-response,,
18,condition1,,,,,,0.0-6.0-1.154,,,+,,253090,,629,html-keyboard-response,,
18,condition1,,,,,,0.0-6.0-2.154,,,img2/false/5.jpg,,253305,,630,image-keyboard-response,,
18,condition1,S,M,,,,0.0-6.0-3.154,d,1996,"Press S if the two images were the same, Press D if the two images were different.",,255302,,631,html-keyboard-response,,
18,condition1,,,,,,0.0-6.0-0.155,,,img2/false/10.jpg,,255509,,632,image-keyboard-response,,
18,condition1,,,,,,0.0-6.0-1.155,,,+,,255816,,633,html-keyboard-response,,
18,condition1,,,,,,0.0-6.0-2.155,,,img2/false/12.jpg,,256033,,634,image-keyboard-response,,
18,condition1,D,M,,,,0.0-6.0-3.155,d,565,"Press S if the two images were the same, Press D if the two images were different.",,256598,,635,html-keyboard-response,,
18,condition1,,,,,,0.0-6.0-0.156,,,img2/jap/9.jpg,,256816,,636,image-keyboard-response,,
18,condition1,,,,,,0.0-6.0-1.156,,,+,,257128,,637,html-keyboard-response,,
18,condition1,,,,,,0.0-6.0-2.156,,,img2/jap/12.jpg,,257328,,638,image-keyboard-response,,
18,condition1,D,J,,,,0.0-6.0-3.156,d,485,"Press S if the two images were the same, Press D if the two images were different.",,257814,,639,html-keyboard-response,,
18,condition1,,,,,,0.0-6.0-0.157,,,img2/false/6.jpg,,258026,,640,image-keyboard-response,,
18,condition1,,,,,,0.0-6.0-1.157,,,+,,258333,,641,html-keyboard-response,,
18,condition1,,,,,,0.0-6.0-2.157,,,img2/Mfalse/6.jpg,,258551,,642,image-keyboard-response,,
18,condition1,S,M,,,,0.0-6.0-3.157,d,554,"Press S if the two images were the same, Press D if the two images were different.",,259105,,643,html-keyboard-response,,
18,condition1,,,,,,0.0-6.0-0.158,,,img2/false/14.jpg,,259318,,644,image-keyboard-response,,
18,condition1,,,,,,0.0-6.0-1.158,,,+,,259625,,645,html-keyboard-response,,
18,condition1,,,,,,0.0-6.0-2.158,,,img2/false/13.jpg,,259841,,646,image-keyboard-response,,
18,condition1,D,M,,,,0.0-6.0-3.158,d,404,"Press S if the two images were the same, Press D if the two images were different.",,260246,,647,html-keyboard-response,,
18,condition1,,,,,,0.0-6.0-0.159,,,img2/jap/4.jpg,,260459,,648,image-keyboard-response,,
18,condition1,,,,,,0.0-6.0-1.159,,,+,,260766,,649,html-keyboard-response,,
18,condition1,,,,,,0.0-6.0-2.159,,,img2/Mjap/4.jpg,,260968,,650,image-keyboard-response,,
18,condition1,S,J,,,,0.0-6.0-3.159,d,438,"Press S if the two images were the same, Press D if the two images were different.",,261406,,651,html-keyboard-response,,
18,condition1,,,,,,0.0-6.0-0.160,,,img2/false/11.jpg,,261627,,652,image-keyboard-response,,
18,condition1,,,,,,0.0-6.0-1.160,,,+,,261936,,653,html-keyboard-response,,
18,condition1,,,,,,0.0-6.0-2.160,,,img2/Mfalse/11.jpg,,262154,,654,image-keyboard-response,,
18,condition1,S,M,,,,0.0-6.0-3.160,d,619,"Press S if the two images were the same, Press D if the two images were different.",,262774,,655,html-keyboard-response,,
18,condition1,,,,,,0.0-6.0-0.161,,,img2/faces/6.jpg,,262997,,656,image-keyboard-response,,
18,condition1,,,,,,0.0-6.0-1.161,,,+,,263304,,657,html-keyboard-response,,
18,condition1,,,,,,0.0-6.0-2.161,,,img2/faces/14.jpg,,263517,,658,image-keyboard-response,,
18,condition1,D,H,,,,0.0-6.0-3.161,d,1096,"Press S if the two images were the same, Press D if the two images were different.",,264614,,659,html-keyboard-response,,
18,condition1,,,,,,0.0-6.0-0.162,,,img2/Mtools/14.jpg,,264826,,660,image-keyboard-response,,
18,condition1,,,,,,0.0-6.0-1.162,,,+,,265138,,661,html-keyboard-response,,
18,condition1,,,,,,0.0-6.0-2.162,,,img2/Mtools/13.jpg,,265355,,662,image-keyboard-response,,
18,condition1,D,O,,,,0.0-6.0-3.162,d,490,"Press S if the two images were the same, Press D if the two images were different.",,265845,,663,html-keyboard-response,,
18,condition1,,,,,,0.0-6.0-0.163,,,img2/tools/2.jpg,,266066,,664,image-keyboard-response,,
18,condition1,,,,,,0.0-6.0-1.163,,,+,,266377,,665,html-keyboard-response,,
18,condition1,,,,,,0.0-6.0-2.163,,,img2/tools/9.jpg,,266594,,666,image-keyboard-response,,
18,condition1,D,O,,,,0.0-6.0-3.163,d,307,"Press S if the two images were the same, Press D if the two images were different.",,266901,,667,html-keyboard-response,,
18,condition1,,,,,,0.0-6.0-0.164,,,img2/faces/12.jpg,,267121,,668,image-keyboard-response,,
18,condition1,,,,,,0.0-6.0-1.164,,,+,,267429,,669,html-keyboard-response,,
18,condition1,,,,,,0.0-6.0-2.164,,,img2/faces/12.jpg,,267645,,670,image-keyboard-response,,
18,condition1,S,H,,,,0.0-6.0-3.164,s,377,"Press S if the two images were the same, Press D if the two images were different.",,268022,,671,html-keyboard-response,,
18,condition1,,,,,,0.0-6.0-0.165,,,img2/jap/14.jpg,,268230,,672,image-keyboard-response,,
18,condition1,,,,,,0.0-6.0-1.165,,,+,,268538,,673,html-keyboard-response,,
18,condition1,,,,,,0.0-6.0-2.165,,,img2/Mjap/14.jpg,,268741,,674,image-keyboard-response,,
18,condition1,S,J,,,,0.0-6.0-3.165,d,417,"Press S if the two images were the same, Press D if the two images were different.",,269159,,675,html-keyboard-response,,
18,condition1,,,,,,0.0-6.0-0.166,,,img2/tools/4.jpg,,269359,,676,image-keyboard-response,,
18,condition1,,,,,,0.0-6.0-1.166,,,+,,269670,,677,html-keyboard-response,,
18,condition1,,,,,,0.0-6.0-2.166,,,img2/tools/12.jpg,,269889,,678,image-keyboard-response,,
18,condition1,D,O,,,,0.0-6.0-3.166,d,397,"Press S if the two images were the same, Press D if the two images were different.",,270286,,679,html-keyboard-response,,
18,condition1,,,,,,0.0-6.0-0.167,,,img2/tools/9.jpg,,270505,,680,image-keyboard-response,,
18,condition1,,,,,,0.0-6.0-1.167,,,+,,270816,,681,html-keyboard-response,,
18,condition1,,,,,,0.0-6.0-2.167,,,img2/Mtools/9.jpg,,271031,,682,image-keyboard-response,,
18,condition1,S,O,,,,0.0-6.0-3.167,d,431,"Press S if the two images were the same, Press D if the two images were different.",,271463,,683,html-keyboard-response,,
18,condition1,,,,,,0.0-6.0-0.168,,,img2/faces/14.jpg,,271674,,684,image-keyboard-response,,
18,condition1,,,,,,0.0-6.0-1.168,,,+,,271982,,685,html-keyboard-response,,
18,condition1,,,,,,0.0-6.0-2.168,,,img2/Mfaces/14.jpg,,272198,,686,image-keyboard-response,,
18,condition1,S,H,,,,0.0-6.0-3.168,d,415,"Press S if the two images were the same, Press D if the two images were different.",,272614,,687,html-keyboard-response,,
18,condition1,,,,,,0.0-6.0-0.169,,,img2/jap/5.jpg,,272832,,688,image-keyboard-response,,
18,condition1,,,,,,0.0-6.0-1.169,,,+,,273141,,689,html-keyboard-response,,
18,condition1,,,,,,0.0-6.0-2.169,,,img2/jap/12.jpg,,273358,,690,image-keyboard-response,,
18,condition1,D,J,,,,0.0-6.0-3.169,d,383,"Press S if the two images were the same, Press D if the two images were different.",,273742,,691,html-keyboard-response,,
18,condition1,,,,,,0.0-6.0-0.170,,,img2/tools/4.jpg,,273962,,692,image-keyboard-response,,
18,condition1,,,,,,0.0-6.0-1.170,,,+,,274268,,693,html-keyboard-response,,
18,condition1,,,,,,0.0-6.0-2.170,,,img2/Mtools/4.jpg,,274481,,694,image-keyboard-response,,
18,condition1,S,O,,,,0.0-6.0-3.170,d,444,"Press S if the two images were the same, Press D if the two images were different.",,274926,,695,html-keyboard-response,,
18,condition1,,,,,,0.0-6.0-0.171,,,img2/false/2.jpg,,275143,,696,image-keyboard-response,,
18,condition1,,,,,,0.0-6.0-1.171,,,+,,275466,,697,html-keyboard-response,,
18,condition1,,,,,,0.0-6.0-2.171,,,img2/false/2.jpg,,275681,,698,image-keyboard-response,,
18,condition1,S,M,,,,0.0-6.0-3.171,s,495,"Press S if the two images were the same, Press D if the two images were different.",,276176,,699,html-keyboard-response,,
18,condition1,,,,,,0.0-6.0-0.172,,,img2/faces/14.jpg,,276402,,700,image-keyboard-response,,
18,condition1,,,,,,0.0-6.0-1.172,,,+,,276712,,701,html-keyboard-response,,
18,condition1,,,,,,0.0-6.0-2.172,,,img2/faces/14.jpg,,276925,,702,image-keyboard-response,,
18,condition1,S,H,,,,0.0-6.0-3.172,s,313,"Press S if the two images were the same, Press D if the two images were different.",,277238,,703,html-keyboard-response,,
18,condition1,,,,,,0.0-6.0-0.173,,,img2/faces/14.jpg,,277447,,704,image-keyboard-response,,
18,condition1,,,,,,0.0-6.0-1.173,,,+,,277758,,705,html-keyboard-response,,
18,condition1,,,,,,0.0-6.0-2.173,,,img2/faces/13.jpg,,277961,,706,image-keyboard-response,,
18,condition1,D,H,,,,0.0-6.0-3.173,d,990,"Press S if the two images were the same, Press D if the two images were different.",,278951,,707,html-keyboard-response,,
18,condition1,,,,,,0.0-6.0-0.174,,,img2/Mfalse/6.jpg,,279158,,708,image-keyboard-response,,
18,condition1,,,,,,0.0-6.0-1.174,,,+,,279467,,709,html-keyboard-response,,
18,condition1,,,,,,0.0-6.0-2.174,,,img2/Mfalse/14.jpg,,279682,,710,image-keyboard-response,,
18,condition1,D,M,,,,0.0-6.0-3.174,d,734,"Press S if the two images were the same, Press D if the two images were different.",,280416,,711,html-keyboard-response,,
18,condition1,,,,,,0.0-6.0-0.175,,,img2/Mfrench/3.jpg,,280635,,712,image-keyboard-response,,
18,condition1,,,,,,0.0-6.0-1.175,,,+,,280947,,713,html-keyboard-response,,
18,condition1,,,,,,0.0-6.0-2.175,,,img2/Mfrench/13.jpg,,281169,,714,image-keyboard-response,,
18,condition1,D,R,,,,0.0-6.0-3.175,d,886,"Press S if the two images were the same, Press D if the two images were different.",,282056,,715,html-keyboard-response,,
18,condition1,,,,,,0.0-6.0-0.176,,,img2/faces/12.jpg,,282268,,716,image-keyboard-response,,
18,condition1,,,,,,0.0-6.0-1.176,,,+,,282577,,717,html-keyboard-response,,
18,condition1,,,,,,0.0-6.0-2.176,,,img2/faces/8.jpg,,282792,,718,image-keyboard-response,,
18,condition1,D,H,,,,0.0-6.0-3.176,d,693,"Press S if the two images were the same, Press D if the two images were different.",,283486,,719,html-keyboard-response,,
18,condition1,,,,,,0.0-6.0-0.177,,,img2/french/11.jpg,,283704,,720,image-keyboard-response,,
18,condition1,,,,,,0.0-6.0-1.177,,,+,,284013,,721,html-keyboard-response,,
18,condition1,,,,,,0.0-6.0-2.177,,,img2/french/11.jpg,,284229,,722,image-keyboard-response,,
18,condition1,S,R,,,,0.0-6.0-3.177,s,249,"Press S if the two images were the same, Press D if the two images were different.",,284478,,723,html-keyboard-response,,
18,condition1,,,,,,0.0-6.0-0.178,,,img2/faces/5.jpg,,284704,,724,image-keyboard-response,,
18,condition1,,,,,,0.0-6.0-1.178,,,+,,285014,,725,html-keyboard-response,,
18,condition1,,,,,,0.0-6.0-2.178,,,img2/faces/12.jpg,,285228,,726,image-keyboard-response,,
18,condition1,D,H,,,,0.0-6.0-3.178,d,794,"Press S if the two images were the same, Press D if the two images were different.",,286023,,727,html-keyboard-response,,
18,condition1,,,,,,0.0-6.0-0.179,,,img2/faces/4.jpg,,286234,,728,image-keyboard-response,,
18,condition1,,,,,,0.0-6.0-1.179,,,+,,286541,,729,html-keyboard-response,,
18,condition1,,,,,,0.0-6.0-2.179,,,img2/Mfaces/4.jpg,,286761,,730,image-keyboard-response,,
18,condition1,S,H,,,,0.0-6.0-3.179,d,564,"Press S if the two images were the same, Press D if the two images were different.",,287326,,731,html-keyboard-response,,
18,condition1,,,,,,0.0-6.0-0.180,,,img2/french/6.jpg,,287542,,732,image-keyboard-response,,
18,condition1,,,,,,0.0-6.0-1.180,,,+,,287850,,733,html-keyboard-response,,
18,condition1,,,,,,0.0-6.0-2.180,,,img2/french/14.jpg,,288051,,734,image-keyboard-response,,
18,condition1,D,R,,,,0.0-6.0-3.180,d,1066,"Press S if the two images were the same, Press D if the two images were different.",,289117,,735,html-keyboard-response,,
18,condition1,,,,,,0.0-6.0-0.181,,,img2/jap/13.jpg,,289324,,736,image-keyboard-response,,
18,condition1,,,,,,0.0-6.0-1.181,,,+,,289631,,737,html-keyboard-response,,
18,condition1,,,,,,0.0-6.0-2.181,,,img2/jap/11.jpg,,289845,,738,image-keyboard-response,,
18,condition1,D,J,,,,0.0-6.0-3.181,d,481,"Press S if the two images were the same, Press D if the two images were different.",,290326,,739,html-keyboard-response,,
18,condition1,,,,,,0.0-6.0-0.182,,,img2/tools/12.jpg,,290537,,740,image-keyboard-response,,
18,condition1,,,,,,0.0-6.0-1.182,,,+,,290842,,741,html-keyboard-response,,
18,condition1,,,,,,0.0-6.0-2.182,,,img2/tools/12.jpg,,291058,,742,image-keyboard-response,,
18,condition1,S,O,,,,0.0-6.0-3.182,s,317,"Press S if the two images were the same, Press D if the two images were different.",,291375,,743,html-keyboard-response,,
18,condition1,,,,,,0.0-6.0-0.183,,,img2/jap/8.jpg,,291580,,744,image-keyboard-response,,
18,condition1,,,,,,0.0-6.0-1.183,,,+,,291889,,745,html-keyboard-response,,
18,condition1,,,,,,0.0-6.0-2.183,,,img2/Mjap/8.jpg,,292104,,746,image-keyboard-response,,
18,condition1,S,J,,,,0.0-6.0-3.183,d,1366,"Press S if the two images were the same, Press D if the two images were different.",,293470,,747,html-keyboard-response,,
18,condition1,,,,,,0.0-6.0-0.184,,,img2/faces/8.jpg,,293681,,748,image-keyboard-response,,
18,condition1,,,,,,0.0-6.0-1.184,,,+,,293991,,749,html-keyboard-response,,
18,condition1,,,,,,0.0-6.0-2.184,,,img2/faces/8.jpg,,294208,,750,image-keyboard-response,,
18,condition1,S,H,,,,0.0-6.0-3.184,s,326,"Press S if the two images were the same, Press D if the two images were different.",,294534,,751,html-keyboard-response,,
18,condition1,,,,,,0.0-6.0-0.185,,,img2/faces/8.jpg,,294745,,752,image-keyboard-response,,
18,condition1,,,,,,0.0-6.0-1.185,,,+,,295066,,753,html-keyboard-response,,
18,condition1,,,,,,0.0-6.0-2.185,,,img2/faces/9.jpg,,295269,,754,image-keyboard-response,,
18,condition1,D,H,,,,0.0-6.0-3.185,d,1225,"Press S if the two images were the same, Press D if the two images were different.",,296494,,755,html-keyboard-response,,
18,condition1,,,,,,0.0-6.0-0.186,,,img2/french/10.jpg,,296700,,756,image-keyboard-response,,
18,condition1,,,,,,0.0-6.0-1.186,,,+,,297006,,757,html-keyboard-response,,
18,condition1,,,,,,0.0-6.0-2.186,,,img2/french/10.jpg,,297222,,758,image-keyboard-response,,
18,condition1,S,R,,,,0.0-6.0-3.186,s,385,"Press S if the two images were the same, Press D if the two images were different.",,297608,,759,html-keyboard-response,,
18,condition1,,,,,,0.0-6.0-0.187,,,img2/french/1.jpg,,297822,,760,image-keyboard-response,,
18,condition1,,,,,,0.0-6.0-1.187,,,+,,298129,,761,html-keyboard-response,,
18,condition1,,,,,,0.0-6.0-2.187,,,img2/french/1.jpg,,298342,,762,image-keyboard-response,,
18,condition1,S,R,,,,0.0-6.0-3.187,s,267,"Press S if the two images were the same, Press D if the two images were different.",,298609,,763,html-keyboard-response,,
18,condition1,,,,,,0.0-6.0-0.188,,,img2/Mfrench/5.jpg,,298818,,764,image-keyboard-response,,
18,condition1,,,,,,0.0-6.0-1.188,,,+,,299125,,765,html-keyboard-response,,
18,condition1,,,,,,0.0-6.0-2.188,,,img2/Mfrench/12.jpg,,299340,,766,image-keyboard-response,,
18,condition1,D,R,,,,0.0-6.0-3.188,d,355,"Press S if the two images were the same, Press D if the two images were different.",,299696,,767,html-keyboard-response,,
18,condition1,,,,,,0.0-6.0-0.189,,,img2/french/14.jpg,,299908,,768,image-keyboard-response,,
18,condition1,,,,,,0.0-6.0-1.189,,,+,,300214,,769,html-keyboard-response,,
18,condition1,,,,,,0.0-6.0-2.189,,,img2/french/14.jpg,,300428,,770,image-keyboard-response,,
18,condition1,S,R,,,,0.0-6.0-3.189,s,498,"Press S if the two images were the same, Press D if the two images were different.",,300926,,771,html-keyboard-response,,
18,condition1,,,,,,0.0-6.0-0.190,,,img2/faces/9.jpg,,301146,,772,image-keyboard-response,,
18,condition1,,,,,,0.0-6.0-1.190,,,+,,301452,,773,html-keyboard-response,,
18,condition1,,,,,,0.0-6.0-2.190,,,img2/faces/12.jpg,,301666,,774,image-keyboard-response,,
18,condition1,D,H,,,,0.0-6.0-3.190,d,413,"Press S if the two images were the same, Press D if the two images were different.",,302079,,775,html-keyboard-response,,
18,condition1,,,,,,0.0-6.0-0.191,,,img2/Mtools/7.jpg,,302296,,776,image-keyboard-response,,
18,condition1,,,,,,0.0-6.0-1.191,,,+,,302605,,777,html-keyboard-response,,
18,condition1,,,,,,0.0-6.0-2.191,,,img2/Mtools/13.jpg,,302821,,778,image-keyboard-response,,
18,condition1,D,O,,,,0.0-6.0-3.191,d,553,"Press S if the two images were the same, Press D if the two images were different.",,303374,,779,html-keyboard-response,,
18,condition1,,,,,,0.0-6.0-0.192,,,img2/tools/7.jpg,,303592,,780,image-keyboard-response,,
18,condition1,,,,,,0.0-6.0-1.192,,,+,,303913,,781,html-keyboard-response,,
18,condition1,,,,,,0.0-6.0-2.192,,,img2/Mtools/7.jpg,,304129,,782,image-keyboard-response,,
18,condition1,S,O,,,,0.0-6.0-3.192,d,437,"Press S if the two images were the same, Press D if the two images were different.",,304566,,783,html-keyboard-response,,
18,condition1,,,,,,0.0-6.0-0.193,,,img2/french/3.jpg,,304775,,784,image-keyboard-response,,
18,condition1,,,,,,0.0-6.0-1.193,,,+,,305081,,785,html-keyboard-response,,
18,condition1,,,,,,0.0-6.0-2.193,,,img2/Mfrench/3.jpg,,305295,,786,image-keyboard-response,,
18,condition1,S,R,,,,0.0-6.0-3.193,d,342,"Press S if the two images were the same, Press D if the two images were different.",,305638,,787,html-keyboard-response,,
18,condition1,,,,,,0.0-6.0-0.194,,,img2/french/4.jpg,,305851,,788,image-keyboard-response,,
18,condition1,,,,,,0.0-6.0-1.194,,,+,,306161,,789,html-keyboard-response,,
18,condition1,,,,,,0.0-6.0-2.194,,,img2/french/12.jpg,,306375,,790,image-keyboard-response,,
18,condition1,D,R,,,,0.0-6.0-3.194,d,391,"Press S if the two images were the same, Press D if the two images were different.",,306766,,791,html-keyboard-response,,
18,condition1,,,,,,0.0-6.0-0.195,,,img2/jap/6.jpg,,306975,,792,image-keyboard-response,,
18,condition1,,,,,,0.0-6.0-1.195,,,+,,307283,,793,html-keyboard-response,,
18,condition1,,,,,,0.0-6.0-2.195,,,img2/Mjap/6.jpg,,307497,,794,image-keyboard-response,,
18,condition1,S,J,,,,0.0-6.0-3.195,s,397,"Press S if the two images were the same, Press D if the two images were different.",,307894,,795,html-keyboard-response,,
18,condition1,,,,,,0.0-6.0-0.196,,,img2/french/7.jpg,,308111,,796,image-keyboard-response,,
18,condition1,,,,,,0.0-6.0-1.196,,,+,,308432,,797,html-keyboard-response,,
18,condition1,,,,,,0.0-6.0-2.196,,,img2/french/7.jpg,,308646,,798,image-keyboard-response,,
18,condition1,S,R,,,,0.0-6.0-3.196,s,938,"Press S if the two images were the same, Press D if the two images were different.",,309584,,799,html-keyboard-response,,
18,condition1,,,,,,0.0-6.0-0.197,,,img2/false/8.jpg,,309795,,800,image-keyboard-response,,
18,condition1,,,,,,0.0-6.0-1.197,,,+,,310108,,801,html-keyboard-response,,
18,condition1,,,,,,0.0-6.0-2.197,,,img2/false/8.jpg,,310321,,802,image-keyboard-response,,
18,condition1,S,M,,,,0.0-6.0-3.197,s,652,"Press S if the two images were the same, Press D if the two images were different.",,310974,,803,html-keyboard-response,,
18,condition1,,,,,,0.0-6.0-0.198,,,img2/Mtools/1.jpg,,311184,,804,image-keyboard-response,,
18,condition1,,,,,,0.0-6.0-1.198,,,+,,311506,,805,html-keyboard-response,,
18,condition1,,,,,,0.0-6.0-2.198,,,img2/Mtools/7.jpg,,311723,,806,image-keyboard-response,,
18,condition1,D,O,,,,0.0-6.0-3.198,d,421,"Press S if the two images were the same, Press D if the two images were different.",,312145,,807,html-keyboard-response,,
18,condition1,,,,,,0.0-6.0-0.199,,,img2/tools/10.jpg,,312351,,808,image-keyboard-response,,
18,condition1,,,,,,0.0-6.0-1.199,,,+,,312654,,809,html-keyboard-response,,
18,condition1,,,,,,0.0-6.0-2.199,,,img2/tools/12.jpg,,312869,,810,image-keyboard-response,,
18,condition1,D,O,,,,0.0-6.0-3.199,d,408,"Press S if the two images were the same, Press D if the two images were different.",,313278,,811,html-keyboard-response,,
18,condition1,,,,,,0.0-6.0-0.200,,,img2/faces/9.jpg,,313497,,812,image-keyboard-response,,
18,condition1,,,,,,0.0-6.0-1.200,,,+,,313818,,813,html-keyboard-response,,
18,condition1,,,,,,0.0-6.0-2.200,,,img2/Mfaces/9.jpg,,314035,,814,image-keyboard-response,,
18,condition1,S,H,,,,0.0-6.0-3.200,d,434,"Press S if the two images were the same, Press D if the two images were different.",,314469,,815,html-keyboard-response,,
18,condition1,,,,,,0.0-6.0-0.201,,,img2/jap/2.jpg,,314679,,816,image-keyboard-response,,
18,condition1,,,,,,0.0-6.0-1.201,,,+,,314989,,817,html-keyboard-response,,
18,condition1,,,,,,0.0-6.0-2.201,,,img2/jap/2.jpg,,315206,,818,image-keyboard-response,,
18,condition1,S,J,,,,0.0-6.0-3.201,s,296,"Press S if the two images were the same, Press D if the two images were different.",,315502,,819,html-keyboard-response,,
18,condition1,,,,,,0.0-6.0-0.202,,,img2/tools/8.jpg,,315713,,820,image-keyboard-response,,
18,condition1,,,,,,0.0-6.0-1.202,,,+,,316020,,821,html-keyboard-response,,
18,condition1,,,,,,0.0-6.0-2.202,,,img2/tools/9.jpg,,316234,,822,image-keyboard-response,,
18,condition1,D,O,,,,0.0-6.0-3.202,d,403,"Press S if the two images were the same, Press D if the two images were different.",,316638,,823,html-keyboard-response,,
18,condition1,,,,,,0.0-6.0-0.203,,,img2/faces/11.jpg,,316848,,824,image-keyboard-response,,
18,condition1,,,,,,0.0-6.0-1.203,,,+,,317158,,825,html-keyboard-response,,
18,condition1,,,,,,0.0-6.0-2.203,,,img2/faces/11.jpg,,317373,,826,image-keyboard-response,,
18,condition1,S,H,,,,0.0-6.0-3.203,s,377,"Press S if the two images were the same, Press D if the two images were different.",,317750,,827,html-keyboard-response,,
18,condition1,,,,,,0.0-6.0-0.204,,,img2/Mjap/8.jpg,,317957,,828,image-keyboard-response,,
18,condition1,,,,,,0.0-6.0-1.204,,,+,,318264,,829,html-keyboard-response,,
18,condition1,,,,,,0.0-6.0-2.204,,,img2/Mjap/9.jpg,,318480,,830,image-keyboard-response,,
18,condition1,D,J,,,,0.0-6.0-3.204,d,501,"Press S if the two images were the same, Press D if the two images were different.",,318982,,831,html-keyboard-response,,
18,condition1,,,,,,0.0-6.0-0.205,,,img2/Mfalse/11.jpg,,319197,,832,image-keyboard-response,,
18,condition1,,,,,,0.0-6.0-1.205,,,+,,319503,,833,html-keyboard-response,,
18,condition1,,,,,,0.0-6.0-2.205,,,img2/Mfalse/6.jpg,,319720,,834,image-keyboard-response,,
18,condition1,D,M,,,,0.0-6.0-3.205,d,430,"Press S if the two images were the same, Press D if the two images were different.",,320150,,835,html-keyboard-response,,
18,condition1,,,,,,0.0-6.0-0.206,,,img2/tools/5.jpg,,320358,,836,image-keyboard-response,,
18,condition1,,,,,,0.0-6.0-1.206,,,+,,320670,,837,html-keyboard-response,,
18,condition1,,,,,,0.0-6.0-2.206,,,img2/tools/12.jpg,,320888,,838,image-keyboard-response,,
18,condition1,D,O,,,,0.0-6.0-3.206,d,445,"Press S if the two images were the same, Press D if the two images were different.",,321334,,839,html-keyboard-response,,
18,condition1,,,,,,0.0-6.0-0.207,,,img2/Mtools/9.jpg,,321550,,840,image-keyboard-response,,
18,condition1,,,,,,0.0-6.0-1.207,,,+,,321858,,841,html-keyboard-response,,
18,condition1,,,,,,0.0-6.0-2.207,,,img2/Mtools/12.jpg,,322061,,842,image-keyboard-response,,
18,condition1,D,O,,,,0.0-6.0-3.207,d,466,"Press S if the two images were the same, Press D if the two images were different.",,322527,,843,html-keyboard-response,,
18,condition1,,,,,,0.0-6.0-0.208,,,img2/faces/12.jpg,,322741,,844,image-keyboard-response,,
18,condition1,,,,,,0.0-6.0-1.208,,,+,,323050,,845,html-keyboard-response,,
18,condition1,,,,,,0.0-6.0-2.208,,,img2/Mfaces/12.jpg,,323266,,846,image-keyboard-response,,
18,condition1,S,H,,,,0.0-6.0-3.208,s,620,"Press S if the two images were the same, Press D if the two images were different.",,323886,,847,html-keyboard-response,,
18,condition1,,,,,,0.0-6.0-0.209,,,img2/faces/2.jpg,,324092,,848,image-keyboard-response,,
18,condition1,,,,,,0.0-6.0-1.209,,,+,,324400,,849,html-keyboard-response,,
18,condition1,,,,,,0.0-6.0-2.209,,,img2/faces/9.jpg,,324613,,850,image-keyboard-response,,
18,condition1,D,H,,,,0.0-6.0-3.209,d,568,"Press S if the two images were the same, Press D if the two images were different.",,325182,,851,html-keyboard-response,,
18,condition1,,,,,,0.0-6.0-0.210,,,img2/french/5.jpg,,325398,,852,image-keyboard-response,,
18,condition1,,,,,,0.0-6.0-1.210,,,+,,325708,,853,html-keyboard-response,,
18,condition1,,,,,,0.0-6.0-2.210,,,img2/french/12.jpg,,325923,,854,image-keyboard-response,,
18,condition1,D,R,,,,0.0-6.0-3.210,d,418,"Press S if the two images were the same, Press D if the two images were different.",,326342,,855,html-keyboard-response,,
18,condition1,,,,,,0.0-6.0-0.211,,,img2/Mfaces/11.jpg,,326556,,856,image-keyboard-response,,
18,condition1,,,,,,0.0-6.0-1.211,,,+,,326867,,857,html-keyboard-response,,
18,condition1,,,,,,0.0-6.0-2.211,,,img2/Mfaces/6.jpg,,327083,,858,image-keyboard-response,,
18,condition1,D,H,,,,0.0-6.0-3.211,d,346,"Press S if the two images were the same, Press D if the two images were different.",,327430,,859,html-keyboard-response,,
18,condition1,,,,,,0.0-6.0-0.212,,,img2/tools/11.jpg,,327647,,860,image-keyboard-response,,
18,condition1,,,,,,0.0-6.0-1.212,,,+,,327969,,861,html-keyboard-response,,
18,condition1,,,,,,0.0-6.0-2.212,,,img2/tools/11.jpg,,328182,,862,image-keyboard-response,,
18,condition1,S,O,,,,0.0-6.0-3.212,d,336,"Press S if the two images were the same, Press D if the two images were different.",,328518,,863,html-keyboard-response,,
18,condition1,,,,,,0.0-6.0-0.213,,,img2/jap/14.jpg,,328735,,864,image-keyboard-response,,
18,condition1,,,,,,0.0-6.0-1.213,,,+,,329041,,865,html-keyboard-response,,
18,condition1,,,,,,0.0-6.0-2.213,,,img2/jap/13.jpg,,329255,,866,image-keyboard-response,,
18,condition1,D,J,,,,0.0-6.0-3.213,s,598,"Press S if the two images were the same, Press D if the two images were different.",,329854,,867,html-keyboard-response,,
18,condition1,,,,,,0.0-6.0-0.214,,,img2/Mfaces/12.jpg,,330074,,868,image-keyboard-response,,
18,condition1,,,,,,0.0-6.0-1.214,,,+,,330382,,869,html-keyboard-response,,
18,condition1,,,,,,0.0-6.0-2.214,,,img2/Mfaces/8.jpg,,330598,,870,image-keyboard-response,,
18,condition1,D,H,,,,0.0-6.0-3.214,d,888,"Press S if the two images were the same, Press D if the two images were different.",,331486,,871,html-keyboard-response,,
18,condition1,,,,,,0.0-6.0-0.215,,,img2/tools/2.jpg,,331704,,872,image-keyboard-response,,
18,condition1,,,,,,0.0-6.0-1.215,,,+,,332024,,873,html-keyboard-response,,
18,condition1,,,,,,0.0-6.0-2.215,,,img2/Mtools/2.jpg,,332239,,874,image-keyboard-response,,
18,condition1,S,O,,,,0.0-6.0-3.215,s,772,"Press S if the two images were the same, Press D if the two images were different.",,333011,,875,html-keyboard-response,,
18,condition1,,,,,,0.0-6.0-0.216,,,img2/tools/9.jpg,,333220,,876,image-keyboard-response,,
18,condition1,,,,,,0.0-6.0-1.216,,,+,,333524,,877,html-keyboard-response,,
18,condition1,,,,,,0.0-6.0-2.216,,,img2/tools/9.jpg,,333739,,878,image-keyboard-response,,
18,condition1,S,O,,,,0.0-6.0-3.216,d,1019,"Press S if the two images were the same, Press D if the two images were different.",,334758,,879,html-keyboard-response,,
18,condition1,,,,,,0.0-6.0-0.217,,,img2/Mjap/9.jpg,,334969,,880,image-keyboard-response,,
18,condition1,,,,,,0.0-6.0-1.217,,,+,,335277,,881,html-keyboard-response,,
18,condition1,,,,,,0.0-6.0-2.217,,,img2/Mjap/12.jpg,,335493,,882,image-keyboard-response,,
18,condition1,D,J,,,,0.0-6.0-3.217,d,1977,"Press S if the two images were the same, Press D if the two images were different.",,337471,,883,html-keyboard-response,,
18,condition1,,,,,,0.0-6.0-0.218,,,img2/jap/14.jpg,,337684,,884,image-keyboard-response,,
18,condition1,,,,,,0.0-6.0-1.218,,,+,,337991,,885,html-keyboard-response,,
18,condition1,,,,,,0.0-6.0-2.218,,,img2/jap/14.jpg,,338207,,886,image-keyboard-response,,
18,condition1,S,J,,,,0.0-6.0-3.218,s,951,"Press S if the two images were the same, Press D if the two images were different.",,339159,,887,html-keyboard-response,,
18,condition1,,,,,,0.0-6.0-0.219,,,img2/Mjap/12.jpg,,339360,,888,image-keyboard-response,,
18,condition1,,,,,,0.0-6.0-1.219,,,+,,339668,,889,html-keyboard-response,,
18,condition1,,,,,,0.0-6.0-2.219,,,img2/Mjap/8.jpg,,339883,,890,image-keyboard-response,,
18,condition1,D,J,,,,0.0-6.0-3.219,d,1946,"Press S if the two images were the same, Press D if the two images were different.",,341830,,891,html-keyboard-response,,
18,condition1,,,,,,0.0-6.0-0.220,,,img2/Mtools/2.jpg,,342036,,892,image-keyboard-response,,
18,condition1,,,,,,0.0-6.0-1.220,,,+,,342343,,893,html-keyboard-response,,
18,condition1,,,,,,0.0-6.0-2.220,,,img2/Mtools/9.jpg,,342558,,894,image-keyboard-response,,
18,condition1,D,O,,,,0.0-6.0-3.220,d,1546,"Press S if the two images were the same, Press D if the two images were different.",,344105,,895,html-keyboard-response,,
18,condition1,,,,,,0.0-6.0-0.221,,,img2/false/11.jpg,,344321,,896,image-keyboard-response,,
18,condition1,,,,,,0.0-6.0-1.221,,,+,,344629,,897,html-keyboard-response,,
18,condition1,,,,,,0.0-6.0-2.221,,,img2/false/11.jpg,,344845,,898,image-keyboard-response,,
18,condition1,S,M,,,,0.0-6.0-3.221,s,601,"Press S if the two images were the same, Press D if the two images were different.",,345446,,899,html-keyboard-response,,
18,condition1,,,,,,0.0-6.0-0.222,,,img2/tools/4.jpg,,345660,,900,image-keyboard-response,,
18,condition1,,,,,,0.0-6.0-1.222,,,+,,345968,,901,html-keyboard-response,,
18,condition1,,,,,,0.0-6.0-2.222,,,img2/tools/4.jpg,,346184,,902,image-keyboard-response,,
18,condition1,S,O,,,,0.0-6.0-3.222,s,959,"Press S if the two images were the same, Press D if the two images were different.",,347143,,903,html-keyboard-response,,
18,condition1,,,,,,0.0-6.0-0.223,,,img2/false/14.jpg,,347352,,904,image-keyboard-response,,
18,condition1,,,,,,0.0-6.0-1.223,,,+,,347657,,905,html-keyboard-response,,
18,condition1,,,,,,0.0-6.0-2.223,,,img2/Mfalse/14.jpg,,347859,,906,image-keyboard-response,,
18,condition1,S,M,,,,0.0-6.0-3.223,d,1443,"Press S if the two images were the same, Press D if the two images were different.",,349303,,907,html-keyboard-response,,
18,condition1,,,,,,0.0-6.0-0.224,,,img2/Mjap/10.jpg,,349519,,908,image-keyboard-response,,
18,condition1,,,,,,0.0-6.0-1.224,,,+,,349823,,909,html-keyboard-response,,
18,condition1,,,,,,0.0-6.0-2.224,,,img2/Mjap/12.jpg,,350038,,910,image-keyboard-response,,
18,condition1,D,J,,,,0.0-6.0-3.224,d,1176,"Press S if the two images were the same, Press D if the two images were different.",,351214,,911,html-keyboard-response,,
18,condition1,,,,,,0.0-6.0-0.225,,,img2/french/12.jpg,,351435,,912,image-keyboard-response,,
18,condition1,,,,,,0.0-6.0-1.225,,,+,,351744,,913,html-keyboard-response,,
18,condition1,,,,,,0.0-6.0-2.225,,,img2/Mfrench/12.jpg,,351960,,914,image-keyboard-response,,
18,condition1,S,R,,,,0.0-6.0-3.225,d,2103,"Press S if the two images were the same, Press D if the two images were different.",,354062,,915,html-keyboard-response,,
18,condition1,,,,,,0.0-6.0-0.226,,,img2/tools/6.jpg,,354270,,916,image-keyboard-response,,
18,condition1,,,,,,0.0-6.0-1.226,,,+,,354577,,917,html-keyboard-response,,
18,condition1,,,,,,0.0-6.0-2.226,,,img2/tools/6.jpg,,354791,,918,image-keyboard-response,,
18,condition1,S,O,,,,0.0-6.0-3.226,s,457,"Press S if the two images were the same, Press D if the two images were different.",,355248,,919,html-keyboard-response,,
18,condition1,,,,,,0.0-6.0-0.227,,,img2/tools/6.jpg,,355465,,920,image-keyboard-response,,
18,condition1,,,,,,0.0-6.0-1.227,,,+,,355775,,921,html-keyboard-response,,
18,condition1,,,,,,0.0-6.0-2.227,,,img2/tools/14.jpg,,355989,,922,image-keyboard-response,,
18,condition1,D,O,,,,0.0-6.0-3.227,d,337,"Press S if the two images were the same, Press D if the two images were different.",,356326,,923,html-keyboard-response,,
18,condition1,,,,,,0.0-6.0-0.228,,,img2/Mtools/3.jpg,,356544,,924,image-keyboard-response,,
18,condition1,,,,,,0.0-6.0-1.228,,,+,,356863,,925,html-keyboard-response,,
18,condition1,,,,,,0.0-6.0-2.228,,,img2/Mtools/13.jpg,,357080,,926,image-keyboard-response,,
18,condition1,D,O,,,,0.0-6.0-3.228,d,582,"Press S if the two images were the same, Press D if the two images were different.",,357662,,927,html-keyboard-response,,
18,condition1,,,,,,0.0-6.0-0.229,,,img2/jap/9.jpg,,357882,,928,image-keyboard-response,,
18,condition1,,,,,,0.0-6.0-1.229,,,+,,358189,,929,html-keyboard-response,,
18,condition1,,,,,,0.0-6.0-2.229,,,img2/jap/9.jpg,,358405,,930,image-keyboard-response,,
18,condition1,S,J,,,,0.0-6.0-3.229,s,432,"Press S if the two images were the same, Press D if the two images were different.",,358838,,931,html-keyboard-response,,
18,condition1,,,,,,0.0-6.0-0.230,,,img2/jap/7.jpg,,359064,,932,image-keyboard-response,,
18,condition1,,,,,,0.0-6.0-1.230,,,+,,359371,,933,html-keyboard-response,,
18,condition1,,,,,,0.0-6.0-2.230,,,img2/Mjap/7.jpg,,359586,,934,image-keyboard-response,,
18,condition1,S,J,,,,0.0-6.0-3.230,d,452,"Press S if the two images were the same, Press D if the two images were different.",,360038,,935,html-keyboard-response,,
18,condition1,,,,,,0.0-6.0-0.231,,,img2/false/3.jpg,,360248,,936,image-keyboard-response,,
18,condition1,,,,,,0.0-6.0-1.231,,,+,,360570,,937,html-keyboard-response,,
18,condition1,,,,,,0.0-6.0-2.231,,,img2/Mfalse/3.jpg,,360770,,938,image-keyboard-response,,
18,condition1,S,M,,,,0.0-6.0-3.231,d,516,"Press S if the two images were the same, Press D if the two images were different.",,361287,,939,html-keyboard-response,,
18,condition1,,,,,,0.0-6.0-0.232,,,img2/french/13.jpg,,361507,,940,image-keyboard-response,,
18,condition1,,,,,,0.0-6.0-1.232,,,+,,361827,,941,html-keyboard-response,,
18,condition1,,,,,,0.0-6.0-2.232,,,img2/french/13.jpg,,362040,,942,image-keyboard-response,,
