"";"workerid";"proliferate.condition";"X0";"X1";"failed_audio";"failed_images";"failed_video";"internal_node_id";"response";"rt";"sequence_id";"same_mirror_normal";"stimulus";"success";"time_elapsed";"timeout";"trial_index";"trial_type";"view_history";"error"
"1";12;"condition1";"";"";"[]";"[]";"[]";"0.0-0.0";"";"";"0";"";"";"True";755;"False";0;"preload";"";""
"2";12;"condition1";"";"";"";"";"";"0.0-1.0";"";"22977";"1";"";"";"";23732;"";1;"instructions";"[{'page_index': 0, 'viewing_time': 18712}, {'page_index': 1, 'viewing_time': 1130}, {'page_index': 2, 'viewing_time': 491}, {'page_index': 3, 'viewing_time': 2644}]";""
"3";12;"condition1";"";"";"";"";"";"0.0-2.0-0.0";"";"";"0";"";"img2/tools/2.jpg";"";23957;"";2;"image-keyboard-response";"";""
"4";12;"condition1";"";"";"";"";"";"0.0-2.0-1.0";"";"";"1";"";"+";"";24270;"";3;"html-keyboard-response";"";""
"5";12;"condition1";"";"";"";"";"";"0.0-2.0-2.0";"";"";"2";"";"img2/Mtools/2.jpg";"";24472;"";4;"image-keyboard-response";"";""
"6";12;"condition1";"";"";"";"";"";"0.0-2.0-3.0";"s";"9488";"3";"M";"Press S if the two images were the same, Press D if the two images were different.";"";33960;"";5;"html-keyboard-response";"";""
"7";12;"condition1";"";"";"";"";"";"0.0-3.0";"";"5372";"3";"";"";"";39332;"";6;"instructions";"[{'page_index': 0, 'viewing_time': 5372}]";""
"8";12;"condition1";"";"";"";"";"";"0.0-4.0-0.0";"";"";"0";"";"img2/jap/2.jpg";"";39542;"";7;"image-keyboard-response";"";""
"9";12;"condition1";"";"";"";"";"";"0.0-4.0-1.0";"";"";"1";"";"+";"";39844;"";8;"html-keyboard-response";"";""
"10";12;"condition1";"";"";"";"";"";"0.0-4.0-2.0";"";"";"2";"";"img2/jap/3.jpg";"";40055;"";9;"image-keyboard-response";"";""
"11";12;"condition1";"";"";"";"";"";"0.0-4.0-3.0";"d";"3537";"3";"T";"Press S if the two images were the same, Press D if the two images were different.";"";43593;"";10;"html-keyboard-response";"";""
"12";12;"condition1";"";"";"";"";"";"0.0-5.0";"";"2276";"5";"";"";"";45869;"";11;"instructions";"[{'page_index': 0, 'viewing_time': 2276}]";""
"13";12;"condition1";"";"";"";"";"";"0.0-6.0-0.0";"";"";"0";"";"img2/jap/5.jpg";"";46080;"";12;"image-keyboard-response";"";""
"14";12;"condition1";"";"";"";"";"";"0.0-6.0-1.0";"";"";"1";"";"+";"";46392;"";13;"html-keyboard-response";"";""
"15";12;"condition1";"";"";"";"";"";"0.0-6.0-2.0";"";"";"2";"";"img2/jap/5.jpg";"";46609;"";14;"image-keyboard-response";"";""
"16";12;"condition1";"S";"J";"";"";"";"0.0-6.0-3.0";"s";"1046";"3";"T";"Press S if the two images were the same, Press D if the two images were different.";"";47656;"";15;"html-keyboard-response";"";""
"17";12;"condition1";"";"";"";"";"";"0.0-6.0-0.1";"";"";"0";"";"img2/jap/4.jpg";"";47860;"";16;"image-keyboard-response";"";""
"18";12;"condition1";"";"";"";"";"";"0.0-6.0-1.1";"";"";"1";"";"+";"";48172;"";17;"html-keyboard-response";"";""
"19";12;"condition1";"";"";"";"";"";"0.0-6.0-2.1";"";"";"2";"";"img2/jap/4.jpg";"";48391;"";18;"image-keyboard-response";"";""
"20";12;"condition1";"S";"J";"";"";"";"0.0-6.0-3.1";"d";"776";"3";"T";"Press S if the two images were the same, Press D if the two images were different.";"";49167;"";19;"html-keyboard-response";"";""
"21";12;"condition1";"";"";"";"";"";"0.0-6.0-0.2";"";"";"0";"";"img2/Mtools/11.jpg";"";49376;"";20;"image-keyboard-response";"";""
"22";12;"condition1";"";"";"";"";"";"0.0-6.0-1.2";"";"";"1";"";"+";"";49688;"";21;"html-keyboard-response";"";""
"23";12;"condition1";"";"";"";"";"";"0.0-6.0-2.2";"";"";"2";"";"img2/Mtools/3.jpg";"";49892;"";22;"image-keyboard-response";"";""
"24";12;"condition1";"D";"O";"";"";"";"0.0-6.0-3.2";"d";"1331";"3";"M";"Press S if the two images were the same, Press D if the two images were different.";"";51223;"";23;"html-keyboard-response";"";""
"25";12;"condition1";"";"";"";"";"";"0.0-6.0-0.3";"";"";"0";"";"img2/Mjap/3.jpg";"";51430;"";24;"image-keyboard-response";"";""
"26";12;"condition1";"";"";"";"";"";"0.0-6.0-1.3";"";"";"1";"";"+";"";51732;"";25;"html-keyboard-response";"";""
"27";12;"condition1";"";"";"";"";"";"0.0-6.0-2.3";"";"";"2";"";"img2/Mjap/4.jpg";"";51942;"";26;"image-keyboard-response";"";""
"28";12;"condition1";"D";"J";"";"";"";"0.0-6.0-3.3";"s";"1197";"3";"M";"Press S if the two images were the same, Press D if the two images were different.";"";53143;"";27;"html-keyboard-response";"";""
"29";12;"condition1";"";"";"";"";"";"0.0-6.0-0.4";"";"";"0";"";"img2/false/13.jpg";"";53356;"";28;"image-keyboard-response";"";""
"30";12;"condition1";"";"";"";"";"";"0.0-6.0-1.4";"";"";"1";"";"+";"";53671;"";29;"html-keyboard-response";"";""
"31";12;"condition1";"";"";"";"";"";"0.0-6.0-2.4";"";"";"2";"";"img2/false/1.jpg";"";53890;"";30;"image-keyboard-response";"";""
"32";12;"condition1";"D";"M";"";"";"";"0.0-6.0-3.4";"d";"830";"3";"T";"Press S if the two images were the same, Press D if the two images were different.";"";54720;"";31;"html-keyboard-response";"";""
"33";12;"condition1";"";"";"";"";"";"0.0-6.0-0.5";"";"";"0";"";"img2/jap/8.jpg";"";54931;"";32;"image-keyboard-response";"";""
"34";12;"condition1";"";"";"";"";"";"0.0-6.0-1.5";"";"";"1";"";"+";"";55243;"";33;"html-keyboard-response";"";""
"35";12;"condition1";"";"";"";"";"";"0.0-6.0-2.5";"";"";"2";"";"img2/jap/8.jpg";"";55461;"";34;"image-keyboard-response";"";""
"36";12;"condition1";"S";"J";"";"";"";"0.0-6.0-3.5";"s";"706";"3";"T";"Press S if the two images were the same, Press D if the two images were different.";"";56167;"";35;"html-keyboard-response";"";""
"37";12;"condition1";"";"";"";"";"";"0.0-6.0-0.6";"";"";"0";"";"img2/Mfrench/1.jpg";"";56381;"";36;"image-keyboard-response";"";""
"38";12;"condition1";"";"";"";"";"";"0.0-6.0-1.6";"";"";"1";"";"+";"";56693;"";37;"html-keyboard-response";"";""
"39";12;"condition1";"";"";"";"";"";"0.0-6.0-2.6";"";"";"2";"";"img2/Mfrench/4.jpg";"";56910;"";38;"image-keyboard-response";"";""
"40";12;"condition1";"D";"R";"";"";"";"0.0-6.0-3.6";"d";"953";"3";"M";"Press S if the two images were the same, Press D if the two images were different.";"";57863;"";39;"html-keyboard-response";"";""
"41";12;"condition1";"";"";"";"";"";"0.0-6.0-0.7";"";"";"0";"";"img2/jap/2.jpg";"";58080;"";40;"image-keyboard-response";"";""
"42";12;"condition1";"";"";"";"";"";"0.0-6.0-1.7";"";"";"1";"";"+";"";58391;"";41;"html-keyboard-response";"";""
"43";12;"condition1";"";"";"";"";"";"0.0-6.0-2.7";"";"";"2";"";"img2/Mjap/2.jpg";"";58610;"";42;"image-keyboard-response";"";""
"44";12;"condition1";"S";"J";"";"";"";"0.0-6.0-3.7";"d";"1325";"3";"M";"Press S if the two images were the same, Press D if the two images were different.";"";59936;"";43;"html-keyboard-response";"";""
"45";12;"condition1";"";"";"";"";"";"0.0-6.0-0.8";"";"";"0";"";"img2/tools/13.jpg";"";60153;"";44;"image-keyboard-response";"";""
"46";12;"condition1";"";"";"";"";"";"0.0-6.0-1.8";"";"";"1";"";"+";"";60464;"";45;"html-keyboard-response";"";""
"47";12;"condition1";"";"";"";"";"";"0.0-6.0-2.8";"";"";"2";"";"img2/tools/1.jpg";"";60681;"";46;"image-keyboard-response";"";""
"48";12;"condition1";"D";"O";"";"";"";"0.0-6.0-3.8";"s";"1238";"3";"T";"Press S if the two images were the same, Press D if the two images were different.";"";61919;"";47;"html-keyboard-response";"";""
"49";12;"condition1";"";"";"";"";"";"0.0-6.0-0.9";"";"";"0";"";"img2/jap/8.jpg";"";62126;"";48;"image-keyboard-response";"";""
"50";12;"condition1";"";"";"";"";"";"0.0-6.0-1.9";"";"";"1";"";"+";"";62435;"";49;"html-keyboard-response";"";""
"51";12;"condition1";"";"";"";"";"";"0.0-6.0-2.9";"";"";"2";"";"img2/jap/5.jpg";"";62653;"";50;"image-keyboard-response";"";""
"52";12;"condition1";"D";"J";"";"";"";"0.0-6.0-3.9";"d";"1818";"3";"T";"Press S if the two images were the same, Press D if the two images were different.";"";64471;"";51;"html-keyboard-response";"";""
"53";12;"condition1";"";"";"";"";"";"0.0-6.0-0.10";"";"";"0";"";"img2/tools/9.jpg";"";64698;"";52;"image-keyboard-response";"";""
"54";12;"condition1";"";"";"";"";"";"0.0-6.0-1.10";"";"";"1";"";"+";"";65009;"";53;"html-keyboard-response";"";""
"55";12;"condition1";"";"";"";"";"";"0.0-6.0-2.10";"";"";"2";"";"img2/tools/4.jpg";"";65213;"";54;"image-keyboard-response";"";""
"56";12;"condition1";"D";"O";"";"";"";"0.0-6.0-3.10";"d";"1027";"3";"T";"Press S if the two images were the same, Press D if the two images were different.";"";66240;"";55;"html-keyboard-response";"";""
"57";12;"condition1";"";"";"";"";"";"0.0-6.0-0.11";"";"";"0";"";"img2/faces/5.jpg";"";66445;"";56;"image-keyboard-response";"";""
"58";12;"condition1";"";"";"";"";"";"0.0-6.0-1.11";"";"";"1";"";"+";"";66756;"";57;"html-keyboard-response";"";""
"59";12;"condition1";"";"";"";"";"";"0.0-6.0-2.11";"";"";"2";"";"img2/Mfaces/5.jpg";"";66973;"";58;"image-keyboard-response";"";""
"60";12;"condition1";"S";"H";"";"";"";"0.0-6.0-3.11";"s";"714";"3";"M";"Press S if the two images were the same, Press D if the two images were different.";"";67688;"";59;"html-keyboard-response";"";""
"61";12;"condition1";"";"";"";"";"";"0.0-6.0-0.12";"";"";"0";"";"img2/Mfaces/6.jpg";"";67895;"";60;"image-keyboard-response";"";""
"62";12;"condition1";"";"";"";"";"";"0.0-6.0-1.12";"";"";"1";"";"+";"";68207;"";61;"html-keyboard-response";"";""
"63";12;"condition1";"";"";"";"";"";"0.0-6.0-2.12";"";"";"2";"";"img2/Mfaces/5.jpg";"";68423;"";62;"image-keyboard-response";"";""
"64";12;"condition1";"D";"H";"";"";"";"0.0-6.0-3.12";"d";"537";"3";"M";"Press S if the two images were the same, Press D if the two images were different.";"";68960;"";63;"html-keyboard-response";"";""
"65";12;"condition1";"";"";"";"";"";"0.0-6.0-0.13";"";"";"0";"";"img2/tools/8.jpg";"";69170;"";64;"image-keyboard-response";"";""
"66";12;"condition1";"";"";"";"";"";"0.0-6.0-1.13";"";"";"1";"";"+";"";69481;"";65;"html-keyboard-response";"";""
"67";12;"condition1";"";"";"";"";"";"0.0-6.0-2.13";"";"";"2";"";"img2/tools/5.jpg";"";69698;"";66;"image-keyboard-response";"";""
"68";12;"condition1";"D";"O";"";"";"";"0.0-6.0-3.13";"d";"621";"3";"T";"Press S if the two images were the same, Press D if the two images were different.";"";70319;"";67;"html-keyboard-response";"";""
"69";12;"condition1";"";"";"";"";"";"0.0-6.0-0.14";"";"";"0";"";"img2/Mjap/11.jpg";"";70523;"";68;"image-keyboard-response";"";""
"70";12;"condition1";"";"";"";"";"";"0.0-6.0-1.14";"";"";"1";"";"+";"";70834;"";69;"html-keyboard-response";"";""
"71";12;"condition1";"";"";"";"";"";"0.0-6.0-2.14";"";"";"2";"";"img2/Mjap/3.jpg";"";71051;"";70;"image-keyboard-response";"";""
"72";12;"condition1";"D";"J";"";"";"";"0.0-6.0-3.14";"d";"620";"3";"M";"Press S if the two images were the same, Press D if the two images were different.";"";71671;"";71;"html-keyboard-response";"";""
"73";12;"condition1";"";"";"";"";"";"0.0-6.0-0.15";"";"";"0";"";"img2/jap/9.jpg";"";71876;"";72;"image-keyboard-response";"";""
"74";12;"condition1";"";"";"";"";"";"0.0-6.0-1.15";"";"";"1";"";"+";"";72187;"";73;"html-keyboard-response";"";""
"75";12;"condition1";"";"";"";"";"";"0.0-6.0-2.15";"";"";"2";"";"img2/jap/9.jpg";"";72405;"";74;"image-keyboard-response";"";""
"76";12;"condition1";"S";"J";"";"";"";"0.0-6.0-3.15";"s";"714";"3";"T";"Press S if the two images were the same, Press D if the two images were different.";"";73119;"";75;"html-keyboard-response";"";""
"77";12;"condition1";"";"";"";"";"";"0.0-6.0-0.16";"";"";"0";"";"img2/tools/14.jpg";"";73338;"";76;"image-keyboard-response";"";""
"78";12;"condition1";"";"";"";"";"";"0.0-6.0-1.16";"";"";"1";"";"+";"";73649;"";77;"html-keyboard-response";"";""
"79";12;"condition1";"";"";"";"";"";"0.0-6.0-2.16";"";"";"2";"";"img2/tools/12.jpg";"";73851;"";78;"image-keyboard-response";"";""
"80";12;"condition1";"D";"O";"";"";"";"0.0-6.0-3.16";"d";"509";"3";"T";"Press S if the two images were the same, Press D if the two images were different.";"";74360;"";79;"html-keyboard-response";"";""
"81";12;"condition1";"";"";"";"";"";"0.0-6.0-0.17";"";"";"0";"";"img2/faces/2.jpg";"";74568;"";80;"image-keyboard-response";"";""
"82";12;"condition1";"";"";"";"";"";"0.0-6.0-1.17";"";"";"1";"";"+";"";74877;"";81;"html-keyboard-response";"";""
"83";12;"condition1";"";"";"";"";"";"0.0-6.0-2.17";"";"";"2";"";"img2/Mfaces/2.jpg";"";75097;"";82;"image-keyboard-response";"";""
"84";12;"condition1";"S";"H";"";"";"";"0.0-6.0-3.17";"d";"1007";"3";"M";"Press S if the two images were the same, Press D if the two images were different.";"";76104;"";83;"html-keyboard-response";"";""
"85";12;"condition1";"";"";"";"";"";"0.0-6.0-0.18";"";"";"0";"";"img2/Mjap/2.jpg";"";76312;"";84;"image-keyboard-response";"";""
"86";12;"condition1";"";"";"";"";"";"0.0-6.0-1.18";"";"";"1";"";"+";"";76621;"";85;"html-keyboard-response";"";""
"87";12;"condition1";"";"";"";"";"";"0.0-6.0-2.18";"";"";"2";"";"img2/Mjap/11.jpg";"";76841;"";86;"image-keyboard-response";"";""
"88";12;"condition1";"D";"J";"";"";"";"0.0-6.0-3.18";"d";"815";"3";"M";"Press S if the two images were the same, Press D if the two images were different.";"";77656;"";87;"html-keyboard-response";"";""
"89";12;"condition1";"";"";"";"";"";"0.0-6.0-0.19";"";"";"0";"";"img2/jap/7.jpg";"";77879;"";88;"image-keyboard-response";"";""
"90";12;"condition1";"";"";"";"";"";"0.0-6.0-1.19";"";"";"1";"";"+";"";78189;"";89;"html-keyboard-response";"";""
"91";12;"condition1";"";"";"";"";"";"0.0-6.0-2.19";"";"";"2";"";"img2/jap/10.jpg";"";78407;"";90;"image-keyboard-response";"";""
"92";12;"condition1";"D";"J";"";"";"";"0.0-6.0-3.19";"d";"792";"3";"T";"Press S if the two images were the same, Press D if the two images were different.";"";79199;"";91;"html-keyboard-response";"";""
"93";12;"condition1";"";"";"";"";"";"0.0-6.0-0.20";"";"";"0";"";"img2/tools/7.jpg";"";79408;"";92;"image-keyboard-response";"";""
"94";12;"condition1";"";"";"";"";"";"0.0-6.0-1.20";"";"";"1";"";"+";"";79720;"";93;"html-keyboard-response";"";""
"95";12;"condition1";"";"";"";"";"";"0.0-6.0-2.20";"";"";"2";"";"img2/tools/10.jpg";"";79925;"";94;"image-keyboard-response";"";""
"96";12;"condition1";"D";"O";"";"";"";"0.0-6.0-3.20";"d";"578";"3";"T";"Press S if the two images were the same, Press D if the two images were different.";"";80503;"";95;"html-keyboard-response";"";""
"97";12;"condition1";"";"";"";"";"";"0.0-6.0-0.21";"";"";"0";"";"img2/false/13.jpg";"";80722;"";96;"image-keyboard-response";"";""
"98";12;"condition1";"";"";"";"";"";"0.0-6.0-1.21";"";"";"1";"";"+";"";81034;"";97;"html-keyboard-response";"";""
"99";12;"condition1";"";"";"";"";"";"0.0-6.0-2.21";"";"";"2";"";"img2/Mfalse/13.jpg";"";81252;"";98;"image-keyboard-response";"";""
"100";12;"condition1";"S";"M";"";"";"";"0.0-6.0-3.21";"d";"339";"3";"M";"Press S if the two images were the same, Press D if the two images were different.";"";81592;"";99;"html-keyboard-response";"";""
"101";12;"condition1";"";"";"";"";"";"0.0-6.0-0.22";"";"";"0";"";"img2/Mfalse/4.jpg";"";81799;"";100;"image-keyboard-response";"";""
"102";12;"condition1";"";"";"";"";"";"0.0-6.0-1.22";"";"";"1";"";"+";"";82111;"";101;"html-keyboard-response";"";""
"103";12;"condition1";"";"";"";"";"";"0.0-6.0-2.22";"";"";"2";"";"img2/Mfalse/12.jpg";"";82330;"";102;"image-keyboard-response";"";""
"104";12;"condition1";"D";"M";"";"";"";"0.0-6.0-3.22";"d";"429";"3";"M";"Press S if the two images were the same, Press D if the two images were different.";"";82759;"";103;"html-keyboard-response";"";""
"105";12;"condition1";"";"";"";"";"";"0.0-6.0-0.23";"";"";"0";"";"img2/jap/12.jpg";"";82967;"";104;"image-keyboard-response";"";""
"106";12;"condition1";"";"";"";"";"";"0.0-6.0-1.23";"";"";"1";"";"+";"";83278;"";105;"html-keyboard-response";"";""
"107";12;"condition1";"";"";"";"";"";"0.0-6.0-2.23";"";"";"2";"";"img2/jap/9.jpg";"";83495;"";106;"image-keyboard-response";"";""
"108";12;"condition1";"D";"J";"";"";"";"0.0-6.0-3.23";"d";"536";"3";"T";"Press S if the two images were the same, Press D if the two images were different.";"";84031;"";107;"html-keyboard-response";"";""
"109";12;"condition1";"";"";"";"";"";"0.0-6.0-0.24";"";"";"0";"";"img2/jap/12.jpg";"";84246;"";108;"image-keyboard-response";"";""
"110";12;"condition1";"";"";"";"";"";"0.0-6.0-1.24";"";"";"1";"";"+";"";84556;"";109;"html-keyboard-response";"";""
"111";12;"condition1";"";"";"";"";"";"0.0-6.0-2.24";"";"";"2";"";"img2/Mjap/12.jpg";"";84775;"";110;"image-keyboard-response";"";""
"112";12;"condition1";"S";"J";"";"";"";"0.0-6.0-3.24";"d";"368";"3";"M";"Press S if the two images were the same, Press D if the two images were different.";"";85143;"";111;"html-keyboard-response";"";""
"113";12;"condition1";"";"";"";"";"";"0.0-6.0-0.25";"";"";"0";"";"img2/faces/7.jpg";"";85352;"";112;"image-keyboard-response";"";""
"114";12;"condition1";"";"";"";"";"";"0.0-6.0-1.25";"";"";"1";"";"+";"";85664;"";113;"html-keyboard-response";"";""
"115";12;"condition1";"";"";"";"";"";"0.0-6.0-2.25";"";"";"2";"";"img2/Mfaces/7.jpg";"";85868;"";114;"image-keyboard-response";"";""
"116";12;"condition1";"S";"H";"";"";"";"0.0-6.0-3.25";"d";"811";"3";"M";"Press S if the two images were the same, Press D if the two images were different.";"";86679;"";115;"html-keyboard-response";"";""
"117";12;"condition1";"";"";"";"";"";"0.0-6.0-0.26";"";"";"0";"";"img2/french/10.jpg";"";86895;"";116;"image-keyboard-response";"";""
"118";12;"condition1";"";"";"";"";"";"0.0-6.0-1.26";"";"";"1";"";"+";"";87207;"";117;"html-keyboard-response";"";""
"119";12;"condition1";"";"";"";"";"";"0.0-6.0-2.26";"";"";"2";"";"img2/french/10.jpg";"";87412;"";118;"image-keyboard-response";"";""
"120";12;"condition1";"S";"R";"";"";"";"0.0-6.0-3.26";"s";"620";"3";"T";"Press S if the two images were the same, Press D if the two images were different.";"";88032;"";119;"html-keyboard-response";"";""
"121";12;"condition1";"";"";"";"";"";"0.0-6.0-0.27";"";"";"0";"";"img2/faces/7.jpg";"";88239;"";120;"image-keyboard-response";"";""
"122";12;"condition1";"";"";"";"";"";"0.0-6.0-1.27";"";"";"1";"";"+";"";88551;"";121;"html-keyboard-response";"";""
"123";12;"condition1";"";"";"";"";"";"0.0-6.0-2.27";"";"";"2";"";"img2/faces/7.jpg";"";88769;"";122;"image-keyboard-response";"";""
"124";12;"condition1";"S";"H";"";"";"";"0.0-6.0-3.27";"s";"326";"3";"T";"Press S if the two images were the same, Press D if the two images were different.";"";89095;"";123;"html-keyboard-response";"";""
"125";12;"condition1";"";"";"";"";"";"0.0-6.0-0.28";"";"";"0";"";"img2/faces/14.jpg";"";89313;"";124;"image-keyboard-response";"";""
"126";12;"condition1";"";"";"";"";"";"0.0-6.0-1.28";"";"";"1";"";"+";"";89627;"";125;"html-keyboard-response";"";""
"127";12;"condition1";"";"";"";"";"";"0.0-6.0-2.28";"";"";"2";"";"img2/faces/12.jpg";"";89848;"";126;"image-keyboard-response";"";""
"128";12;"condition1";"D";"H";"";"";"";"0.0-6.0-3.28";"d";"352";"3";"T";"Press S if the two images were the same, Press D if the two images were different.";"";90200;"";127;"html-keyboard-response";"";""
"129";12;"condition1";"";"";"";"";"";"0.0-6.0-0.29";"";"";"0";"";"img2/Mfaces/9.jpg";"";90426;"";128;"image-keyboard-response";"";""
"130";12;"condition1";"";"";"";"";"";"0.0-6.0-1.29";"";"";"1";"";"+";"";90737;"";129;"html-keyboard-response";"";""
"131";12;"condition1";"";"";"";"";"";"0.0-6.0-2.29";"";"";"2";"";"img2/Mfaces/4.jpg";"";90954;"";130;"image-keyboard-response";"";""
"132";12;"condition1";"D";"H";"";"";"";"0.0-6.0-3.29";"d";"509";"3";"M";"Press S if the two images were the same, Press D if the two images were different.";"";91463;"";131;"html-keyboard-response";"";""
"133";12;"condition1";"";"";"";"";"";"0.0-6.0-0.30";"";"";"0";"";"img2/jap/13.jpg";"";91676;"";132;"image-keyboard-response";"";""
"134";12;"condition1";"";"";"";"";"";"0.0-6.0-1.30";"";"";"1";"";"+";"";91989;"";133;"html-keyboard-response";"";""
"135";12;"condition1";"";"";"";"";"";"0.0-6.0-2.30";"";"";"2";"";"img2/jap/1.jpg";"";92207;"";134;"image-keyboard-response";"";""
"136";12;"condition1";"D";"J";"";"";"";"0.0-6.0-3.30";"d";"472";"3";"T";"Press S if the two images were the same, Press D if the two images were different.";"";92679;"";135;"html-keyboard-response";"";""
"137";12;"condition1";"";"";"";"";"";"0.0-6.0-0.31";"";"";"0";"";"img2/faces/13.jpg";"";92893;"";136;"image-keyboard-response";"";""
"138";12;"condition1";"";"";"";"";"";"0.0-6.0-1.31";"";"";"1";"";"+";"";93207;"";137;"html-keyboard-response";"";""
"139";12;"condition1";"";"";"";"";"";"0.0-6.0-2.31";"";"";"2";"";"img2/faces/1.jpg";"";93426;"";138;"image-keyboard-response";"";""
"140";12;"condition1";"D";"H";"";"";"";"0.0-6.0-3.31";"d";"301";"3";"T";"Press S if the two images were the same, Press D if the two images were different.";"";93727;"";139;"html-keyboard-response";"";""
"141";12;"condition1";"";"";"";"";"";"0.0-6.0-0.32";"";"";"0";"";"img2/faces/9.jpg";"";93945;"";140;"image-keyboard-response";"";""
"142";12;"condition1";"";"";"";"";"";"0.0-6.0-1.32";"";"";"1";"";"+";"";94258;"";141;"html-keyboard-response";"";""
"143";12;"condition1";"";"";"";"";"";"0.0-6.0-2.32";"";"";"2";"";"img2/faces/4.jpg";"";94460;"";142;"image-keyboard-response";"";""
"144";12;"condition1";"D";"H";"";"";"";"0.0-6.0-3.32";"d";"275";"3";"T";"Press S if the two images were the same, Press D if the two images were different.";"";94735;"";143;"html-keyboard-response";"";""
"145";12;"condition1";"";"";"";"";"";"0.0-6.0-0.33";"";"";"0";"";"img2/jap/11.jpg";"";94946;"";144;"image-keyboard-response";"";""
"146";12;"condition1";"";"";"";"";"";"0.0-6.0-1.33";"";"";"1";"";"+";"";95253;"";145;"html-keyboard-response";"";""
"147";12;"condition1";"";"";"";"";"";"0.0-6.0-2.33";"";"";"2";"";"img2/jap/3.jpg";"";95475;"";146;"image-keyboard-response";"";""
"148";12;"condition1";"D";"J";"";"";"";"0.0-6.0-3.33";"d";"493";"3";"T";"Press S if the two images were the same, Press D if the two images were different.";"";95968;"";147;"html-keyboard-response";"";""
"149";12;"condition1";"";"";"";"";"";"0.0-6.0-0.34";"";"";"0";"";"img2/tools/11.jpg";"";96180;"";148;"image-keyboard-response";"";""
"150";12;"condition1";"";"";"";"";"";"0.0-6.0-1.34";"";"";"1";"";"+";"";96490;"";149;"html-keyboard-response";"";""
"151";12;"condition1";"";"";"";"";"";"0.0-6.0-2.34";"";"";"2";"";"img2/Mtools/11.jpg";"";96708;"";150;"image-keyboard-response";"";""
"152";12;"condition1";"S";"O";"";"";"";"0.0-6.0-3.34";"s";"883";"3";"M";"Press S if the two images were the same, Press D if the two images were different.";"";97591;"";151;"html-keyboard-response";"";""
"153";12;"condition1";"";"";"";"";"";"0.0-6.0-0.35";"";"";"0";"";"img2/tools/3.jpg";"";97798;"";152;"image-keyboard-response";"";""
"154";12;"condition1";"";"";"";"";"";"0.0-6.0-1.35";"";"";"1";"";"+";"";98110;"";153;"html-keyboard-response";"";""
"155";12;"condition1";"";"";"";"";"";"0.0-6.0-2.35";"";"";"2";"";"img2/tools/4.jpg";"";98329;"";154;"image-keyboard-response";"";""
"156";12;"condition1";"D";"O";"";"";"";"0.0-6.0-3.35";"d";"279";"3";"T";"Press S if the two images were the same, Press D if the two images were different.";"";98608;"";155;"html-keyboard-response";"";""
"157";12;"condition1";"";"";"";"";"";"0.0-6.0-0.36";"";"";"0";"";"img2/Mjap/7.jpg";"";98814;"";156;"image-keyboard-response";"";""
"158";12;"condition1";"";"";"";"";"";"0.0-6.0-1.36";"";"";"1";"";"+";"";99124;"";157;"html-keyboard-response";"";""
"159";12;"condition1";"";"";"";"";"";"0.0-6.0-2.36";"";"";"2";"";"img2/Mjap/10.jpg";"";99343;"";158;"image-keyboard-response";"";""
"160";12;"condition1";"D";"J";"";"";"";"0.0-6.0-3.36";"d";"1025";"3";"M";"Press S if the two images were the same, Press D if the two images were different.";"";100368;"";159;"html-keyboard-response";"";""
"161";12;"condition1";"";"";"";"";"";"0.0-6.0-0.37";"";"";"0";"";"img2/faces/2.jpg";"";100575;"";160;"image-keyboard-response";"";""
"162";12;"condition1";"";"";"";"";"";"0.0-6.0-1.37";"";"";"1";"";"+";"";100884;"";161;"html-keyboard-response";"";""
"163";12;"condition1";"";"";"";"";"";"0.0-6.0-2.37";"";"";"2";"";"img2/faces/11.jpg";"";101102;"";162;"image-keyboard-response";"";""
"164";12;"condition1";"D";"H";"";"";"";"0.0-6.0-3.37";"d";"285";"3";"T";"Press S if the two images were the same, Press D if the two images were different.";"";101391;"";163;"html-keyboard-response";"";""
"165";12;"condition1";"";"";"";"";"";"0.0-6.0-0.38";"";"";"0";"";"img2/french/7.jpg";"";101605;"";164;"image-keyboard-response";"";""
"166";12;"condition1";"";"";"";"";"";"0.0-6.0-1.38";"";"";"1";"";"+";"";101916;"";165;"html-keyboard-response";"";""
"167";12;"condition1";"";"";"";"";"";"0.0-6.0-2.38";"";"";"2";"";"img2/french/10.jpg";"";102133;"";166;"image-keyboard-response";"";""
"168";12;"condition1";"D";"R";"";"";"";"0.0-6.0-3.38";"d";"290";"3";"T";"Press S if the two images were the same, Press D if the two images were different.";"";102423;"";167;"html-keyboard-response";"";""
"169";12;"condition1";"";"";"";"";"";"0.0-6.0-0.39";"";"";"0";"";"img2/tools/1.jpg";"";102632;"";168;"image-keyboard-response";"";""
"170";12;"condition1";"";"";"";"";"";"0.0-6.0-1.39";"";"";"1";"";"+";"";102943;"";169;"html-keyboard-response";"";""
"171";12;"condition1";"";"";"";"";"";"0.0-6.0-2.39";"";"";"2";"";"img2/tools/1.jpg";"";103147;"";170;"image-keyboard-response";"";""
"172";12;"condition1";"S";"O";"";"";"";"0.0-6.0-3.39";"s";"388";"3";"T";"Press S if the two images were the same, Press D if the two images were different.";"";103535;"";171;"html-keyboard-response";"";""
"173";12;"condition1";"";"";"";"";"";"0.0-6.0-0.40";"";"";"0";"";"img2/french/12.jpg";"";103752;"";172;"image-keyboard-response";"";""
"174";12;"condition1";"";"";"";"";"";"0.0-6.0-1.40";"";"";"1";"";"+";"";104064;"";173;"html-keyboard-response";"";""
"175";12;"condition1";"";"";"";"";"";"0.0-6.0-2.40";"";"";"2";"";"img2/Mfrench/12.jpg";"";104283;"";174;"image-keyboard-response";"";""
"176";12;"condition1";"S";"R";"";"";"";"0.0-6.0-3.40";"d";"388";"3";"M";"Press S if the two images were the same, Press D if the two images were different.";"";104671;"";175;"html-keyboard-response";"";""
"177";12;"condition1";"";"";"";"";"";"0.0-6.0-0.41";"";"";"0";"";"img2/faces/2.jpg";"";104887;"";176;"image-keyboard-response";"";""
"178";12;"condition1";"";"";"";"";"";"0.0-6.0-1.41";"";"";"1";"";"+";"";105209;"";177;"html-keyboard-response";"";""
"179";12;"condition1";"";"";"";"";"";"0.0-6.0-2.41";"";"";"2";"";"img2/faces/2.jpg";"";105426;"";178;"image-keyboard-response";"";""
"180";12;"condition1";"S";"H";"";"";"";"0.0-6.0-3.41";"s";"293";"3";"T";"Press S if the two images were the same, Press D if the two images were different.";"";105720;"";179;"html-keyboard-response";"";""
"181";12;"condition1";"";"";"";"";"";"0.0-6.0-0.42";"";"";"0";"";"img2/tools/10.jpg";"";105925;"";180;"image-keyboard-response";"";""
"182";12;"condition1";"";"";"";"";"";"0.0-6.0-1.42";"";"";"1";"";"+";"";106231;"";181;"html-keyboard-response";"";""
"183";12;"condition1";"";"";"";"";"";"0.0-6.0-2.42";"";"";"2";"";"img2/tools/14.jpg";"";106449;"";182;"image-keyboard-response";"";""
"184";12;"condition1";"D";"O";"";"";"";"0.0-6.0-3.42";"d";"237";"3";"T";"Press S if the two images were the same, Press D if the two images were different.";"";106687;"";183;"html-keyboard-response";"";""
"185";12;"condition1";"";"";"";"";"";"0.0-6.0-0.43";"";"";"0";"";"img2/french/3.jpg";"";106903;"";184;"image-keyboard-response";"";""
"186";12;"condition1";"";"";"";"";"";"0.0-6.0-1.43";"";"";"1";"";"+";"";107214;"";185;"html-keyboard-response";"";""
"187";12;"condition1";"";"";"";"";"";"0.0-6.0-2.43";"";"";"2";"";"img2/french/4.jpg";"";107432;"";186;"image-keyboard-response";"";""
"188";12;"condition1";"D";"R";"";"";"";"0.0-6.0-3.43";"d";"775";"3";"T";"Press S if the two images were the same, Press D if the two images were different.";"";108207;"";187;"html-keyboard-response";"";""
"189";12;"condition1";"";"";"";"";"";"0.0-6.0-0.44";"";"";"0";"";"img2/jap/14.jpg";"";108427;"";188;"image-keyboard-response";"";""
"190";12;"condition1";"";"";"";"";"";"0.0-6.0-1.44";"";"";"1";"";"+";"";108736;"";189;"html-keyboard-response";"";""
"191";12;"condition1";"";"";"";"";"";"0.0-6.0-2.44";"";"";"2";"";"img2/jap/14.jpg";"";108939;"";190;"image-keyboard-response";"";""
"192";12;"condition1";"S";"J";"";"";"";"0.0-6.0-3.44";"s";"301";"3";"T";"Press S if the two images were the same, Press D if the two images were different.";"";109240;"";191;"html-keyboard-response";"";""
"193";12;"condition1";"";"";"";"";"";"0.0-6.0-0.45";"";"";"0";"";"img2/tools/11.jpg";"";109454;"";192;"image-keyboard-response";"";""
"194";12;"condition1";"";"";"";"";"";"0.0-6.0-1.45";"";"";"1";"";"+";"";109767;"";193;"html-keyboard-response";"";""
"195";12;"condition1";"";"";"";"";"";"0.0-6.0-2.45";"";"";"2";"";"img2/tools/11.jpg";"";109968;"";194;"image-keyboard-response";"";""
"196";12;"condition1";"S";"O";"";"";"";"0.0-6.0-3.45";"s";"614";"3";"T";"Press S if the two images were the same, Press D if the two images were different.";"";110583;"";195;"html-keyboard-response";"";""
"197";12;"condition1";"";"";"";"";"";"0.0-6.0-0.46";"";"";"0";"";"img2/false/6.jpg";"";110788;"";196;"image-keyboard-response";"";""
"198";12;"condition1";"";"";"";"";"";"0.0-6.0-1.46";"";"";"1";"";"+";"";111100;"";197;"html-keyboard-response";"";""
"199";12;"condition1";"";"";"";"";"";"0.0-6.0-2.46";"";"";"2";"";"img2/false/5.jpg";"";111316;"";198;"image-keyboard-response";"";""
"200";12;"condition1";"D";"M";"";"";"";"0.0-6.0-3.46";"d";"283";"3";"T";"Press S if the two images were the same, Press D if the two images were different.";"";111599;"";199;"html-keyboard-response";"";""
"201";12;"condition1";"";"";"";"";"";"0.0-6.0-0.47";"";"";"0";"";"img2/Mjap/1.jpg";"";111814;"";200;"image-keyboard-response";"";""
"202";12;"condition1";"";"";"";"";"";"0.0-6.0-1.47";"";"";"1";"";"+";"";112128;"";201;"html-keyboard-response";"";""
"203";12;"condition1";"";"";"";"";"";"0.0-6.0-2.47";"";"";"2";"";"img2/Mjap/4.jpg";"";112347;"";202;"image-keyboard-response";"";""
"204";12;"condition1";"D";"J";"";"";"";"0.0-6.0-3.47";"d";"700";"3";"M";"Press S if the two images were the same, Press D if the two images were different.";"";113047;"";203;"html-keyboard-response";"";""
"205";12;"condition1";"";"";"";"";"";"0.0-6.0-0.48";"";"";"0";"";"img2/faces/1.jpg";"";113266;"";204;"image-keyboard-response";"";""
"206";12;"condition1";"";"";"";"";"";"0.0-6.0-1.48";"";"";"1";"";"+";"";113577;"";205;"html-keyboard-response";"";""
"207";12;"condition1";"";"";"";"";"";"0.0-6.0-2.48";"";"";"2";"";"img2/faces/4.jpg";"";113781;"";206;"image-keyboard-response";"";""
"208";12;"condition1";"D";"H";"";"";"";"0.0-6.0-3.48";"d";"2266";"3";"T";"Press S if the two images were the same, Press D if the two images were different.";"";116047;"";207;"html-keyboard-response";"";""
"209";12;"condition1";"";"";"";"";"";"0.0-6.0-0.49";"";"";"0";"";"img2/jap/13.jpg";"";116257;"";208;"image-keyboard-response";"";""
"210";12;"condition1";"";"";"";"";"";"0.0-6.0-1.49";"";"";"1";"";"+";"";116567;"";209;"html-keyboard-response";"";""
"211";12;"condition1";"";"";"";"";"";"0.0-6.0-2.49";"";"";"2";"";"img2/Mjap/13.jpg";"";116785;"";210;"image-keyboard-response";"";""
"212";12;"condition1";"S";"J";"";"";"";"0.0-6.0-3.49";"d";"598";"3";"M";"Press S if the two images were the same, Press D if the two images were different.";"";117383;"";211;"html-keyboard-response";"";""
"213";12;"condition1";"";"";"";"";"";"0.0-6.0-0.50";"";"";"0";"";"img2/false/3.jpg";"";117610;"";212;"image-keyboard-response";"";""
"214";12;"condition1";"";"";"";"";"";"0.0-6.0-1.50";"";"";"1";"";"+";"";117926;"";213;"html-keyboard-response";"";""
"215";12;"condition1";"";"";"";"";"";"0.0-6.0-2.50";"";"";"2";"";"img2/false/3.jpg";"";118144;"";214;"image-keyboard-response";"";""
"216";12;"condition1";"S";"M";"";"";"";"0.0-6.0-3.50";"s";"327";"3";"T";"Press S if the two images were the same, Press D if the two images were different.";"";118472;"";215;"html-keyboard-response";"";""
"217";12;"condition1";"";"";"";"";"";"0.0-6.0-0.51";"";"";"0";"";"img2/jap/10.jpg";"";118676;"";216;"image-keyboard-response";"";""
"218";12;"condition1";"";"";"";"";"";"0.0-6.0-1.51";"";"";"1";"";"+";"";118990;"";217;"html-keyboard-response";"";""
"219";12;"condition1";"";"";"";"";"";"0.0-6.0-2.51";"";"";"2";"";"img2/jap/14.jpg";"";119206;"";218;"image-keyboard-response";"";""
"220";12;"condition1";"D";"J";"";"";"";"0.0-6.0-3.51";"d";"322";"3";"T";"Press S if the two images were the same, Press D if the two images were different.";"";119528;"";219;"html-keyboard-response";"";""
"221";12;"condition1";"";"";"";"";"";"0.0-6.0-0.52";"";"";"0";"";"img2/false/4.jpg";"";119737;"";220;"image-keyboard-response";"";""
"222";12;"condition1";"";"";"";"";"";"0.0-6.0-1.52";"";"";"1";"";"+";"";120049;"";221;"html-keyboard-response";"";""
"223";12;"condition1";"";"";"";"";"";"0.0-6.0-2.52";"";"";"2";"";"img2/false/12.jpg";"";120267;"";222;"image-keyboard-response";"";""
"224";12;"condition1";"D";"M";"";"";"";"0.0-6.0-3.52";"d";"436";"3";"T";"Press S if the two images were the same, Press D if the two images were different.";"";120703;"";223;"html-keyboard-response";"";""
"225";12;"condition1";"";"";"";"";"";"0.0-6.0-0.53";"";"";"0";"";"img2/false/9.jpg";"";120921;"";224;"image-keyboard-response";"";""
"226";12;"condition1";"";"";"";"";"";"0.0-6.0-1.53";"";"";"1";"";"+";"";121232;"";225;"html-keyboard-response";"";""
"227";12;"condition1";"";"";"";"";"";"0.0-6.0-2.53";"";"";"2";"";"img2/false/4.jpg";"";121450;"";226;"image-keyboard-response";"";""
"228";12;"condition1";"D";"M";"";"";"";"0.0-6.0-3.53";"d";"349";"3";"T";"Press S if the two images were the same, Press D if the two images were different.";"";121799;"";227;"html-keyboard-response";"";""
"229";12;"condition1";"";"";"";"";"";"0.0-6.0-0.54";"";"";"0";"";"img2/faces/6.jpg";"";122012;"";228;"image-keyboard-response";"";""
"230";12;"condition1";"";"";"";"";"";"0.0-6.0-1.54";"";"";"1";"";"+";"";122326;"";229;"html-keyboard-response";"";""
"231";12;"condition1";"";"";"";"";"";"0.0-6.0-2.54";"";"";"2";"";"img2/faces/6.jpg";"";122545;"";230;"image-keyboard-response";"";""
"232";12;"condition1";"S";"H";"";"";"";"0.0-6.0-3.54";"s";"295";"3";"T";"Press S if the two images were the same, Press D if the two images were different.";"";122839;"";231;"html-keyboard-response";"";""
"233";12;"condition1";"";"";"";"";"";"0.0-6.0-0.55";"";"";"0";"";"img2/Mtools/7.jpg";"";123044;"";232;"image-keyboard-response";"";""
"234";12;"condition1";"";"";"";"";"";"0.0-6.0-1.55";"";"";"1";"";"+";"";123355;"";233;"html-keyboard-response";"";""
"235";12;"condition1";"";"";"";"";"";"0.0-6.0-2.55";"";"";"2";"";"img2/Mtools/10.jpg";"";123574;"";234;"image-keyboard-response";"";""
"236";12;"condition1";"D";"O";"";"";"";"0.0-6.0-3.55";"d";"305";"3";"M";"Press S if the two images were the same, Press D if the two images were different.";"";123879;"";235;"html-keyboard-response";"";""
"237";12;"condition1";"";"";"";"";"";"0.0-6.0-0.56";"";"";"0";"";"img2/french/6.jpg";"";124087;"";236;"image-keyboard-response";"";""
"238";12;"condition1";"";"";"";"";"";"0.0-6.0-1.56";"";"";"1";"";"+";"";124398;"";237;"html-keyboard-response";"";""
"239";12;"condition1";"";"";"";"";"";"0.0-6.0-2.56";"";"";"2";"";"img2/Mfrench/6.jpg";"";124615;"";238;"image-keyboard-response";"";""
"240";12;"condition1";"S";"R";"";"";"";"0.0-6.0-3.56";"d";"425";"3";"M";"Press S if the two images were the same, Press D if the two images were different.";"";125040;"";239;"html-keyboard-response";"";""
"241";12;"condition1";"";"";"";"";"";"0.0-6.0-0.57";"";"";"0";"";"img2/tools/11.jpg";"";125254;"";240;"image-keyboard-response";"";""
"242";12;"condition1";"";"";"";"";"";"0.0-6.0-1.57";"";"";"1";"";"+";"";125565;"";241;"html-keyboard-response";"";""
"243";12;"condition1";"";"";"";"";"";"0.0-6.0-2.57";"";"";"2";"";"img2/tools/3.jpg";"";125782;"";242;"image-keyboard-response";"";""
"244";12;"condition1";"D";"O";"";"";"";"0.0-6.0-3.57";"d";"321";"3";"T";"Press S if the two images were the same, Press D if the two images were different.";"";126103;"";243;"html-keyboard-response";"";""
"245";12;"condition1";"";"";"";"";"";"0.0-6.0-0.58";"";"";"0";"";"img2/Mfrench/14.jpg";"";126313;"";244;"image-keyboard-response";"";""
"246";12;"condition1";"";"";"";"";"";"0.0-6.0-1.58";"";"";"1";"";"+";"";126624;"";245;"html-keyboard-response";"";""
"247";12;"condition1";"";"";"";"";"";"0.0-6.0-2.58";"";"";"2";"";"img2/Mfrench/12.jpg";"";126839;"";246;"image-keyboard-response";"";""
"248";12;"condition1";"D";"R";"";"";"";"0.0-6.0-3.58";"d";"448";"3";"M";"Press S if the two images were the same, Press D if the two images were different.";"";127288;"";247;"html-keyboard-response";"";""
"249";12;"condition1";"";"";"";"";"";"0.0-6.0-0.59";"";"";"0";"";"img2/french/4.jpg";"";127493;"";248;"image-keyboard-response";"";""
"250";12;"condition1";"";"";"";"";"";"0.0-6.0-1.59";"";"";"1";"";"+";"";127805;"";249;"html-keyboard-response";"";""
"251";12;"condition1";"";"";"";"";"";"0.0-6.0-2.59";"";"";"2";"";"img2/Mfrench/4.jpg";"";128022;"";250;"image-keyboard-response";"";""
"252";12;"condition1";"S";"R";"";"";"";"0.0-6.0-3.59";"d";"353";"3";"M";"Press S if the two images were the same, Press D if the two images were different.";"";128376;"";251;"html-keyboard-response";"";""
"253";12;"condition1";"";"";"";"";"";"0.0-6.0-0.60";"";"";"0";"";"img2/tools/4.jpg";"";128584;"";252;"image-keyboard-response";"";""
"254";12;"condition1";"";"";"";"";"";"0.0-6.0-1.60";"";"";"1";"";"+";"";128898;"";253;"html-keyboard-response";"";""
"255";12;"condition1";"";"";"";"";"";"0.0-6.0-2.60";"";"";"2";"";"img2/Mtools/4.jpg";"";129100;"";254;"image-keyboard-response";"";""
"256";12;"condition1";"S";"O";"";"";"";"0.0-6.0-3.60";"d";"444";"3";"M";"Press S if the two images were the same, Press D if the two images were different.";"";129544;"";255;"html-keyboard-response";"";""
"257";12;"condition1";"";"";"";"";"";"0.0-6.0-0.61";"";"";"0";"";"img2/jap/5.jpg";"";129754;"";256;"image-keyboard-response";"";""
"258";12;"condition1";"";"";"";"";"";"0.0-6.0-1.61";"";"";"1";"";"+";"";130066;"";257;"html-keyboard-response";"";""
"259";12;"condition1";"";"";"";"";"";"0.0-6.0-2.61";"";"";"2";"";"img2/jap/6.jpg";"";130270;"";258;"image-keyboard-response";"";""
"260";12;"condition1";"D";"J";"";"";"";"0.0-6.0-3.61";"d";"297";"3";"T";"Press S if the two images were the same, Press D if the two images were different.";"";130567;"";259;"html-keyboard-response";"";""
"261";12;"condition1";"";"";"";"";"";"0.0-6.0-0.62";"";"";"0";"";"img2/Mfrench/9.jpg";"";130783;"";260;"image-keyboard-response";"";""
"262";12;"condition1";"";"";"";"";"";"0.0-6.0-1.62";"";"";"1";"";"+";"";131090;"";261;"html-keyboard-response";"";""
"263";12;"condition1";"";"";"";"";"";"0.0-6.0-2.62";"";"";"2";"";"img2/Mfrench/4.jpg";"";131293;"";262;"image-keyboard-response";"";""
"264";12;"condition1";"D";"R";"";"";"";"0.0-6.0-3.62";"d";"227";"3";"M";"Press S if the two images were the same, Press D if the two images were different.";"";131519;"";263;"html-keyboard-response";"";""
"265";12;"condition1";"";"";"";"";"";"0.0-6.0-0.63";"";"";"0";"";"img2/faces/1.jpg";"";131726;"";264;"image-keyboard-response";"";""
"266";12;"condition1";"";"";"";"";"";"0.0-6.0-1.63";"";"";"1";"";"+";"";132035;"";265;"html-keyboard-response";"";""
"267";12;"condition1";"";"";"";"";"";"0.0-6.0-2.63";"";"";"2";"";"img2/Mfaces/1.jpg";"";132254;"";266;"image-keyboard-response";"";""
"268";12;"condition1";"S";"H";"";"";"";"0.0-6.0-3.63";"d";"170";"3";"M";"Press S if the two images were the same, Press D if the two images were different.";"";132424;"";267;"html-keyboard-response";"";""
"269";12;"condition1";"";"";"";"";"";"0.0-6.0-0.64";"";"";"0";"";"img2/jap/8.jpg";"";132629;"";268;"image-keyboard-response";"";""
"270";12;"condition1";"";"";"";"";"";"0.0-6.0-1.64";"";"";"1";"";"+";"";132942;"";269;"html-keyboard-response";"";""
"271";12;"condition1";"";"";"";"";"";"0.0-6.0-2.64";"";"";"2";"";"img2/Mjap/8.jpg";"";133159;"";270;"image-keyboard-response";"";""
"272";12;"condition1";"S";"J";"";"";"";"0.0-6.0-3.64";"d";"272";"3";"M";"Press S if the two images were the same, Press D if the two images were different.";"";133432;"";271;"html-keyboard-response";"";""
"273";12;"condition1";"";"";"";"";"";"0.0-6.0-0.65";"";"";"0";"";"img2/faces/4.jpg";"";133642;"";272;"image-keyboard-response";"";""
"274";12;"condition1";"";"";"";"";"";"0.0-6.0-1.65";"";"";"1";"";"+";"";133955;"";273;"html-keyboard-response";"";""
"275";12;"condition1";"";"";"";"";"";"0.0-6.0-2.65";"";"";"2";"";"img2/faces/4.jpg";"";134173;"";274;"image-keyboard-response";"";""
"276";12;"condition1";"S";"H";"";"";"";"0.0-6.0-3.65";"s";"410";"3";"T";"Press S if the two images were the same, Press D if the two images were different.";"";134583;"";275;"html-keyboard-response";"";""
"277";12;"condition1";"";"";"";"";"";"0.0-6.0-0.66";"";"";"0";"";"img2/false/14.jpg";"";134795;"";276;"image-keyboard-response";"";""
"278";12;"condition1";"";"";"";"";"";"0.0-6.0-1.66";"";"";"1";"";"+";"";135108;"";277;"html-keyboard-response";"";""
"279";12;"condition1";"";"";"";"";"";"0.0-6.0-2.66";"";"";"2";"";"img2/Mfalse/14.jpg";"";135324;"";278;"image-keyboard-response";"";""
"280";12;"condition1";"S";"M";"";"";"";"0.0-6.0-3.66";"d";"100";"3";"M";"Press S if the two images were the same, Press D if the two images were different.";"";135424;"";279;"html-keyboard-response";"";""
"281";12;"condition1";"";"";"";"";"";"0.0-6.0-0.67";"";"";"0";"";"img2/false/8.jpg";"";135635;"";280;"image-keyboard-response";"";""
"282";12;"condition1";"";"";"";"";"";"0.0-6.0-1.67";"";"";"1";"";"+";"";135947;"";281;"html-keyboard-response";"";""
"283";12;"condition1";"";"";"";"";"";"0.0-6.0-2.67";"";"";"2";"";"img2/Mfalse/8.jpg";"";136166;"";282;"image-keyboard-response";"";""
"284";12;"condition1";"S";"M";"";"";"";"0.0-6.0-3.67";"d";"369";"3";"M";"Press S if the two images were the same, Press D if the two images were different.";"";136536;"";283;"html-keyboard-response";"";""
"285";12;"condition1";"";"";"";"";"";"0.0-6.0-0.68";"";"";"0";"";"img2/Mtools/2.jpg";"";136753;"";284;"image-keyboard-response";"";""
"286";12;"condition1";"";"";"";"";"";"0.0-6.0-1.68";"";"";"1";"";"+";"";137067;"";285;"html-keyboard-response";"";""
"287";12;"condition1";"";"";"";"";"";"0.0-6.0-2.68";"";"";"2";"";"img2/Mtools/11.jpg";"";137285;"";286;"image-keyboard-response";"";""
"288";12;"condition1";"D";"O";"";"";"";"0.0-6.0-3.68";"d";"178";"3";"M";"Press S if the two images were the same, Press D if the two images were different.";"";137463;"";287;"html-keyboard-response";"";""
"289";12;"condition1";"";"";"";"";"";"0.0-6.0-0.69";"";"";"0";"";"img2/french/6.jpg";"";137674;"";288;"image-keyboard-response";"";""
"290";12;"condition1";"";"";"";"";"";"0.0-6.0-1.69";"";"";"1";"";"+";"";137984;"";289;"html-keyboard-response";"";""
"291";12;"condition1";"";"";"";"";"";"0.0-6.0-2.69";"";"";"2";"";"img2/french/5.jpg";"";138202;"";290;"image-keyboard-response";"";""
"292";12;"condition1";"D";"R";"";"";"";"0.0-6.0-3.69";"d";"421";"3";"T";"Press S if the two images were the same, Press D if the two images were different.";"";138623;"";291;"html-keyboard-response";"";""
"293";12;"condition1";"";"";"";"";"";"0.0-6.0-0.70";"";"";"0";"";"img2/faces/5.jpg";"";138841;"";292;"image-keyboard-response";"";""
"294";12;"condition1";"";"";"";"";"";"0.0-6.0-1.70";"";"";"1";"";"+";"";139153;"";293;"html-keyboard-response";"";""
"295";12;"condition1";"";"";"";"";"";"0.0-6.0-2.70";"";"";"2";"";"img2/faces/5.jpg";"";139357;"";294;"image-keyboard-response";"";""
"296";12;"condition1";"S";"H";"";"";"";"0.0-6.0-3.70";"d";"1627";"3";"T";"Press S if the two images were the same, Press D if the two images were different.";"";140984;"";295;"html-keyboard-response";"";""
"297";12;"condition1";"";"";"";"";"";"0.0-6.0-0.71";"";"";"0";"";"img2/faces/8.jpg";"";141208;"";296;"image-keyboard-response";"";""
"298";12;"condition1";"";"";"";"";"";"0.0-6.0-1.71";"";"";"1";"";"+";"";141520;"";297;"html-keyboard-response";"";""
"299";12;"condition1";"";"";"";"";"";"0.0-6.0-2.71";"";"";"2";"";"img2/faces/5.jpg";"";141738;"";298;"image-keyboard-response";"";""
"300";12;"condition1";"D";"H";"";"";"";"0.0-6.0-3.71";"d";"270";"3";"T";"Press S if the two images were the same, Press D if the two images were different.";"";142008;"";299;"html-keyboard-response";"";""
"301";12;"condition1";"";"";"";"";"";"0.0-6.0-0.72";"";"";"0";"";"img2/false/2.jpg";"";142221;"";300;"image-keyboard-response";"";""
"302";12;"condition1";"";"";"";"";"";"0.0-6.0-1.72";"";"";"1";"";"+";"";142531;"";301;"html-keyboard-response";"";""
"303";12;"condition1";"";"";"";"";"";"0.0-6.0-2.72";"";"";"2";"";"img2/false/11.jpg";"";142748;"";302;"image-keyboard-response";"";""
"304";12;"condition1";"D";"M";"";"";"";"0.0-6.0-3.72";"d";"235";"3";"T";"Press S if the two images were the same, Press D if the two images were different.";"";142983;"";303;"html-keyboard-response";"";""
"305";12;"condition1";"";"";"";"";"";"0.0-6.0-0.73";"";"";"0";"";"img2/Mfaces/1.jpg";"";143196;"";304;"image-keyboard-response";"";""
"306";12;"condition1";"";"";"";"";"";"0.0-6.0-1.73";"";"";"1";"";"+";"";143508;"";305;"html-keyboard-response";"";""
"307";12;"condition1";"";"";"";"";"";"0.0-6.0-2.73";"";"";"2";"";"img2/Mfaces/4.jpg";"";143726;"";306;"image-keyboard-response";"";""
"308";12;"condition1";"D";"H";"";"";"";"0.0-6.0-3.73";"d";"369";"3";"M";"Press S if the two images were the same, Press D if the two images were different.";"";144095;"";307;"html-keyboard-response";"";""
"309";12;"condition1";"";"";"";"";"";"0.0-6.0-0.74";"";"";"0";"";"img2/tools/4.jpg";"";144305;"";308;"image-keyboard-response";"";""
"310";12;"condition1";"";"";"";"";"";"0.0-6.0-1.74";"";"";"1";"";"+";"";144616;"";309;"html-keyboard-response";"";""
"311";12;"condition1";"";"";"";"";"";"0.0-6.0-2.74";"";"";"2";"";"img2/tools/12.jpg";"";144834;"";310;"image-keyboard-response";"";""
"312";12;"condition1";"D";"O";"";"";"";"0.0-6.0-3.74";"d";"230";"3";"T";"Press S if the two images were the same, Press D if the two images were different.";"";145063;"";311;"html-keyboard-response";"";""
"313";12;"condition1";"";"";"";"";"";"0.0-6.0-0.75";"";"";"0";"";"img2/jap/11.jpg";"";145283;"";312;"image-keyboard-response";"";""
"314";12;"condition1";"";"";"";"";"";"0.0-6.0-1.75";"";"";"1";"";"+";"";145593;"";313;"html-keyboard-response";"";""
"315";12;"condition1";"";"";"";"";"";"0.0-6.0-2.75";"";"";"2";"";"img2/Mjap/11.jpg";"";145798;"";314;"image-keyboard-response";"";""
"316";12;"condition1";"S";"J";"";"";"";"0.0-6.0-3.75";"d";"321";"3";"M";"Press S if the two images were the same, Press D if the two images were different.";"";146119;"";315;"html-keyboard-response";"";""
"317";12;"condition1";"";"";"";"";"";"0.0-6.0-0.76";"";"";"0";"";"img2/Mfrench/4.jpg";"";146344;"";316;"image-keyboard-response";"";""
"318";12;"condition1";"";"";"";"";"";"0.0-6.0-1.76";"";"";"1";"";"+";"";146654;"";317;"html-keyboard-response";"";""
"319";12;"condition1";"";"";"";"";"";"0.0-6.0-2.76";"";"";"2";"";"img2/Mfrench/12.jpg";"";146871;"";318;"image-keyboard-response";"";""
"320";12;"condition1";"D";"R";"";"";"";"0.0-6.0-3.76";"d";"168";"3";"M";"Press S if the two images were the same, Press D if the two images were different.";"";147039;"";319;"html-keyboard-response";"";""
"321";12;"condition1";"";"";"";"";"";"0.0-6.0-0.77";"";"";"0";"";"img2/french/5.jpg";"";147246;"";320;"image-keyboard-response";"";""
"322";12;"condition1";"";"";"";"";"";"0.0-6.0-1.77";"";"";"1";"";"+";"";147560;"";321;"html-keyboard-response";"";""
"323";12;"condition1";"";"";"";"";"";"0.0-6.0-2.77";"";"";"2";"";"img2/Mfrench/5.jpg";"";147776;"";322;"image-keyboard-response";"";""
"324";12;"condition1";"S";"R";"";"";"";"0.0-6.0-3.77";"d";"455";"3";"M";"Press S if the two images were the same, Press D if the two images were different.";"";148231;"";323;"html-keyboard-response";"";""
"325";12;"condition1";"";"";"";"";"";"0.0-6.0-0.78";"";"";"0";"";"img2/Mfaces/8.jpg";"";148445;"";324;"image-keyboard-response";"";""
"326";12;"condition1";"";"";"";"";"";"0.0-6.0-1.78";"";"";"1";"";"+";"";148757;"";325;"html-keyboard-response";"";""
"327";12;"condition1";"";"";"";"";"";"0.0-6.0-2.78";"";"";"2";"";"img2/Mfaces/5.jpg";"";148975;"";326;"image-keyboard-response";"";""
"328";12;"condition1";"D";"H";"";"";"";"0.0-6.0-3.78";"d";"144";"3";"M";"Press S if the two images were the same, Press D if the two images were different.";"";149120;"";327;"html-keyboard-response";"";""
"329";12;"condition1";"";"";"";"";"";"0.0-6.0-0.79";"";"";"0";"";"img2/faces/12.jpg";"";149335;"";328;"image-keyboard-response";"";""
"330";12;"condition1";"";"";"";"";"";"0.0-6.0-1.79";"";"";"1";"";"+";"";149647;"";329;"html-keyboard-response";"";""
"331";12;"condition1";"";"";"";"";"";"0.0-6.0-2.79";"";"";"2";"";"img2/Mfaces/12.jpg";"";149853;"";330;"image-keyboard-response";"";""
"332";12;"condition1";"S";"H";"";"";"";"0.0-6.0-3.79";"s";"747";"3";"M";"Press S if the two images were the same, Press D if the two images were different.";"";150600;"";331;"html-keyboard-response";"";""
"333";12;"condition1";"";"";"";"";"";"0.0-6.0-0.80";"";"";"0";"";"img2/tools/3.jpg";"";150806;"";332;"image-keyboard-response";"";""
"334";12;"condition1";"";"";"";"";"";"0.0-6.0-1.80";"";"";"1";"";"+";"";151119;"";333;"html-keyboard-response";"";""
"335";12;"condition1";"";"";"";"";"";"0.0-6.0-2.80";"";"";"2";"";"img2/tools/3.jpg";"";151336;"";334;"image-keyboard-response";"";""
"336";12;"condition1";"S";"O";"";"";"";"0.0-6.0-3.80";"s";"391";"3";"T";"Press S if the two images were the same, Press D if the two images were different.";"";151728;"";335;"html-keyboard-response";"";""
"337";12;"condition1";"";"";"";"";"";"0.0-6.0-0.81";"";"";"0";"";"img2/Mtools/5.jpg";"";151944;"";336;"image-keyboard-response";"";""
"338";12;"condition1";"";"";"";"";"";"0.0-6.0-1.81";"";"";"1";"";"+";"";152255;"";337;"html-keyboard-response";"";""
"339";12;"condition1";"";"";"";"";"";"0.0-6.0-2.81";"";"";"2";"";"img2/Mtools/6.jpg";"";152474;"";338;"image-keyboard-response";"";""
"340";12;"condition1";"D";"O";"";"";"";"0.0-6.0-3.81";"d";"157";"3";"M";"Press S if the two images were the same, Press D if the two images were different.";"";152631;"";339;"html-keyboard-response";"";""
"341";12;"condition1";"";"";"";"";"";"0.0-6.0-0.82";"";"";"0";"";"img2/jap/3.jpg";"";152846;"";340;"image-keyboard-response";"";""
"342";12;"condition1";"";"";"";"";"";"0.0-6.0-1.82";"";"";"1";"";"+";"";153157;"";341;"html-keyboard-response";"";""
"343";12;"condition1";"";"";"";"";"";"0.0-6.0-2.82";"";"";"2";"";"img2/jap/4.jpg";"";153373;"";342;"image-keyboard-response";"";""
"344";12;"condition1";"D";"J";"";"";"";"0.0-6.0-3.82";"d";"306";"3";"T";"Press S if the two images were the same, Press D if the two images were different.";"";153679;"";343;"html-keyboard-response";"";""
"345";12;"condition1";"";"";"";"";"";"0.0-6.0-0.83";"";"";"0";"";"img2/tools/2.jpg";"";153888;"";344;"image-keyboard-response";"";""
"346";12;"condition1";"";"";"";"";"";"0.0-6.0-1.83";"";"";"1";"";"+";"";154202;"";345;"html-keyboard-response";"";""
"347";12;"condition1";"";"";"";"";"";"0.0-6.0-2.83";"";"";"2";"";"img2/Mtools/2.jpg";"";154405;"";346;"image-keyboard-response";"";""
"348";12;"condition1";"S";"O";"";"";"";"0.0-6.0-3.83";"d";"315";"3";"M";"Press S if the two images were the same, Press D if the two images were different.";"";154720;"";347;"html-keyboard-response";"";""
"349";12;"condition1";"";"";"";"";"";"0.0-6.0-0.84";"";"";"0";"";"img2/tools/14.jpg";"";154933;"";348;"image-keyboard-response";"";""
"350";12;"condition1";"";"";"";"";"";"0.0-6.0-1.84";"";"";"1";"";"+";"";155244;"";349;"html-keyboard-response";"";""
"351";12;"condition1";"";"";"";"";"";"0.0-6.0-2.84";"";"";"2";"";"img2/tools/14.jpg";"";155462;"";350;"image-keyboard-response";"";""
"352";12;"condition1";"S";"O";"";"";"";"0.0-6.0-3.84";"s";"425";"3";"T";"Press S if the two images were the same, Press D if the two images were different.";"";155887;"";351;"html-keyboard-response";"";""
"353";12;"condition1";"";"";"";"";"";"0.0-6.0-0.85";"";"";"0";"";"img2/false/9.jpg";"";156101;"";352;"image-keyboard-response";"";""
"354";12;"condition1";"";"";"";"";"";"0.0-6.0-1.85";"";"";"1";"";"+";"";156413;"";353;"html-keyboard-response";"";""
"355";12;"condition1";"";"";"";"";"";"0.0-6.0-2.85";"";"";"2";"";"img2/false/9.jpg";"";156630;"";354;"image-keyboard-response";"";""
"356";12;"condition1";"S";"M";"";"";"";"0.0-6.0-3.85";"s";"585";"3";"T";"Press S if the two images were the same, Press D if the two images were different.";"";157216;"";355;"html-keyboard-response";"";""
"357";12;"condition1";"";"";"";"";"";"0.0-6.0-0.86";"";"";"0";"";"img2/false/12.jpg";"";157422;"";356;"image-keyboard-response";"";""
"358";12;"condition1";"";"";"";"";"";"0.0-6.0-1.86";"";"";"1";"";"+";"";157734;"";357;"html-keyboard-response";"";""
"359";12;"condition1";"";"";"";"";"";"0.0-6.0-2.86";"";"";"2";"";"img2/Mfalse/12.jpg";"";157951;"";358;"image-keyboard-response";"";""
"360";12;"condition1";"S";"M";"";"";"";"0.0-6.0-3.86";"d";"240";"3";"M";"Press S if the two images were the same, Press D if the two images were different.";"";158191;"";359;"html-keyboard-response";"";""
"361";12;"condition1";"";"";"";"";"";"0.0-6.0-0.87";"";"";"0";"";"img2/french/14.jpg";"";158402;"";360;"image-keyboard-response";"";""
"362";12;"condition1";"";"";"";"";"";"0.0-6.0-1.87";"";"";"1";"";"+";"";158713;"";361;"html-keyboard-response";"";""
"363";12;"condition1";"";"";"";"";"";"0.0-6.0-2.87";"";"";"2";"";"img2/french/12.jpg";"";158918;"";362;"image-keyboard-response";"";""
"364";12;"condition1";"D";"R";"";"";"";"0.0-6.0-3.87";"d";"761";"3";"T";"Press S if the two images were the same, Press D if the two images were different.";"";159679;"";363;"html-keyboard-response";"";""
"365";12;"condition1";"";"";"";"";"";"0.0-6.0-0.88";"";"";"0";"";"img2/false/4.jpg";"";159903;"";364;"image-keyboard-response";"";""
"366";12;"condition1";"";"";"";"";"";"0.0-6.0-1.88";"";"";"1";"";"+";"";160214;"";365;"html-keyboard-response";"";""
"367";12;"condition1";"";"";"";"";"";"0.0-6.0-2.88";"";"";"2";"";"img2/false/4.jpg";"";160429;"";366;"image-keyboard-response";"";""
"368";12;"condition1";"S";"M";"";"";"";"0.0-6.0-3.88";"s";"339";"3";"T";"Press S if the two images were the same, Press D if the two images were different.";"";160768;"";367;"html-keyboard-response";"";""
"369";12;"condition1";"";"";"";"";"";"0.0-6.0-0.89";"";"";"0";"";"img2/french/8.jpg";"";160975;"";368;"image-keyboard-response";"";""
"370";12;"condition1";"";"";"";"";"";"0.0-6.0-1.89";"";"";"1";"";"+";"";161286;"";369;"html-keyboard-response";"";""
"371";12;"condition1";"";"";"";"";"";"0.0-6.0-2.89";"";"";"2";"";"img2/french/5.jpg";"";161505;"";370;"image-keyboard-response";"";""
"372";12;"condition1";"D";"R";"";"";"";"0.0-6.0-3.89";"d";"247";"3";"T";"Press S if the two images were the same, Press D if the two images were different.";"";161752;"";371;"html-keyboard-response";"";""
"373";12;"condition1";"";"";"";"";"";"0.0-6.0-0.90";"";"";"0";"";"img2/Mfaces/14.jpg";"";161970;"";372;"image-keyboard-response";"";""
"374";12;"condition1";"";"";"";"";"";"0.0-6.0-1.90";"";"";"1";"";"+";"";162282;"";373;"html-keyboard-response";"";""
"375";12;"condition1";"";"";"";"";"";"0.0-6.0-2.90";"";"";"2";"";"img2/Mfaces/12.jpg";"";162501;"";374;"image-keyboard-response";"";""
"376";12;"condition1";"D";"H";"";"";"";"0.0-6.0-3.90";"d";"530";"3";"M";"Press S if the two images were the same, Press D if the two images were different.";"";163032;"";375;"html-keyboard-response";"";""
"377";12;"condition1";"";"";"";"";"";"0.0-6.0-0.91";"";"";"0";"";"img2/french/11.jpg";"";163236;"";376;"image-keyboard-response";"";""
"378";12;"condition1";"";"";"";"";"";"0.0-6.0-1.91";"";"";"1";"";"+";"";163546;"";377;"html-keyboard-response";"";""
"379";12;"condition1";"";"";"";"";"";"0.0-6.0-2.91";"";"";"2";"";"img2/french/3.jpg";"";163751;"";378;"image-keyboard-response";"";""
"380";12;"condition1";"D";"R";"";"";"";"0.0-6.0-3.91";"d";"416";"3";"T";"Press S if the two images were the same, Press D if the two images were different.";"";164167;"";379;"html-keyboard-response";"";""
"381";12;"condition1";"";"";"";"";"";"0.0-6.0-0.92";"";"";"0";"";"img2/french/8.jpg";"";164374;"";380;"image-keyboard-response";"";""
"382";12;"condition1";"";"";"";"";"";"0.0-6.0-1.92";"";"";"1";"";"+";"";164686;"";381;"html-keyboard-response";"";""
"383";12;"condition1";"";"";"";"";"";"0.0-6.0-2.92";"";"";"2";"";"img2/Mfrench/8.jpg";"";164904;"";382;"image-keyboard-response";"";""
"384";12;"condition1";"S";"R";"";"";"";"0.0-6.0-3.92";"d";"351";"3";"M";"Press S if the two images were the same, Press D if the two images were different.";"";165255;"";383;"html-keyboard-response";"";""
"385";12;"condition1";"";"";"";"";"";"0.0-6.0-0.93";"";"";"0";"";"img2/Mjap/12.jpg";"";165462;"";384;"image-keyboard-response";"";""
"386";12;"condition1";"";"";"";"";"";"0.0-6.0-1.93";"";"";"1";"";"+";"";165773;"";385;"html-keyboard-response";"";""
"387";12;"condition1";"";"";"";"";"";"0.0-6.0-2.93";"";"";"2";"";"img2/Mjap/9.jpg";"";165989;"";386;"image-keyboard-response";"";""
"388";12;"condition1";"D";"J";"";"";"";"0.0-6.0-3.93";"d";"426";"3";"M";"Press S if the two images were the same, Press D if the two images were different.";"";166415;"";387;"html-keyboard-response";"";""
"389";12;"condition1";"";"";"";"";"";"0.0-6.0-0.94";"";"";"0";"";"img2/french/2.jpg";"";166641;"";388;"image-keyboard-response";"";""
"390";12;"condition1";"";"";"";"";"";"0.0-6.0-1.94";"";"";"1";"";"+";"";166951;"";389;"html-keyboard-response";"";""
"391";12;"condition1";"";"";"";"";"";"0.0-6.0-2.94";"";"";"2";"";"img2/french/2.jpg";"";167170;"";390;"image-keyboard-response";"";""
"392";12;"condition1";"S";"R";"";"";"";"0.0-6.0-3.94";"s";"405";"3";"T";"Press S if the two images were the same, Press D if the two images were different.";"";167575;"";391;"html-keyboard-response";"";""
"393";12;"condition1";"";"";"";"";"";"0.0-6.0-0.95";"";"";"0";"";"img2/Mfalse/12.jpg";"";167779;"";392;"image-keyboard-response";"";""
"394";12;"condition1";"";"";"";"";"";"0.0-6.0-1.95";"";"";"1";"";"+";"";168091;"";393;"html-keyboard-response";"";""
"395";12;"condition1";"";"";"";"";"";"0.0-6.0-2.95";"";"";"2";"";"img2/Mfalse/9.jpg";"";168308;"";394;"image-keyboard-response";"";""
"396";12;"condition1";"D";"M";"";"";"";"0.0-6.0-3.95";"d";"307";"3";"M";"Press S if the two images were the same, Press D if the two images were different.";"";168616;"";395;"html-keyboard-response";"";""
"397";12;"condition1";"";"";"";"";"";"0.0-6.0-0.96";"";"";"0";"";"img2/tools/5.jpg";"";168822;"";396;"image-keyboard-response";"";""
"398";12;"condition1";"";"";"";"";"";"0.0-6.0-1.96";"";"";"1";"";"+";"";169132;"";397;"html-keyboard-response";"";""
"399";12;"condition1";"";"";"";"";"";"0.0-6.0-2.96";"";"";"2";"";"img2/Mtools/5.jpg";"";169353;"";398;"image-keyboard-response";"";""
"400";12;"condition1";"S";"O";"";"";"";"0.0-6.0-3.96";"d";"526";"3";"M";"Press S if the two images were the same, Press D if the two images were different.";"";169879;"";399;"html-keyboard-response";"";""
"401";12;"condition1";"";"";"";"";"";"0.0-6.0-0.97";"";"";"0";"";"img2/jap/1.jpg";"";170090;"";400;"image-keyboard-response";"";""
"402";12;"condition1";"";"";"";"";"";"0.0-6.0-1.97";"";"";"1";"";"+";"";170401;"";401;"html-keyboard-response";"";""
"403";12;"condition1";"";"";"";"";"";"0.0-6.0-2.97";"";"";"2";"";"img2/jap/1.jpg";"";170618;"";402;"image-keyboard-response";"";""
"404";12;"condition1";"S";"J";"";"";"";"0.0-6.0-3.97";"s";"357";"3";"T";"Press S if the two images were the same, Press D if the two images were different.";"";170975;"";403;"html-keyboard-response";"";""
"405";12;"condition1";"";"";"";"";"";"0.0-6.0-0.98";"";"";"0";"";"img2/false/1.jpg";"";171179;"";404;"image-keyboard-response";"";""
"406";12;"condition1";"";"";"";"";"";"0.0-6.0-1.98";"";"";"1";"";"+";"";171491;"";405;"html-keyboard-response";"";""
"407";12;"condition1";"";"";"";"";"";"0.0-6.0-2.98";"";"";"2";"";"img2/false/4.jpg";"";171708;"";406;"image-keyboard-response";"";""
"408";12;"condition1";"D";"M";"";"";"";"0.0-6.0-3.98";"d";"179";"3";"T";"Press S if the two images were the same, Press D if the two images were different.";"";171888;"";407;"html-keyboard-response";"";""
"409";12;"condition1";"";"";"";"";"";"0.0-6.0-0.99";"";"";"0";"";"img2/jap/3.jpg";"";172098;"";408;"image-keyboard-response";"";""
"410";12;"condition1";"";"";"";"";"";"0.0-6.0-1.99";"";"";"1";"";"+";"";172408;"";409;"html-keyboard-response";"";""
"411";12;"condition1";"";"";"";"";"";"0.0-6.0-2.99";"";"";"2";"";"img2/Mjap/3.jpg";"";172626;"";410;"image-keyboard-response";"";""
"412";12;"condition1";"S";"J";"";"";"";"0.0-6.0-3.99";"d";"525";"3";"M";"Press S if the two images were the same, Press D if the two images were different.";"";173151;"";411;"html-keyboard-response";"";""
"413";12;"condition1";"";"";"";"";"";"0.0-6.0-0.100";"";"";"0";"";"img2/Mfrench/6.jpg";"";173359;"";412;"image-keyboard-response";"";""
"414";12;"condition1";"";"";"";"";"";"0.0-6.0-1.100";"";"";"1";"";"+";"";173670;"";413;"html-keyboard-response";"";""
"415";12;"condition1";"";"";"";"";"";"0.0-6.0-2.100";"";"";"2";"";"img2/Mfrench/5.jpg";"";173887;"";414;"image-keyboard-response";"";""
"416";12;"condition1";"D";"R";"";"";"";"0.0-6.0-3.100";"d";"280";"3";"M";"Press S if the two images were the same, Press D if the two images were different.";"";174167;"";415;"html-keyboard-response";"";""
"417";12;"condition1";"";"";"";"";"";"0.0-6.0-0.101";"";"";"0";"";"img2/faces/11.jpg";"";174382;"";416;"image-keyboard-response";"";""
"418";12;"condition1";"";"";"";"";"";"0.0-6.0-1.101";"";"";"1";"";"+";"";174693;"";417;"html-keyboard-response";"";""
"419";12;"condition1";"";"";"";"";"";"0.0-6.0-2.101";"";"";"2";"";"img2/faces/3.jpg";"";174913;"";418;"image-keyboard-response";"";""
"420";12;"condition1";"D";"H";"";"";"";"0.0-6.0-3.101";"d";"326";"3";"T";"Press S if the two images were the same, Press D if the two images were different.";"";175240;"";419;"html-keyboard-response";"";""
"421";12;"condition1";"";"";"";"";"";"0.0-6.0-0.102";"";"";"0";"";"img2/false/2.jpg";"";175457;"";420;"image-keyboard-response";"";""
"422";12;"condition1";"";"";"";"";"";"0.0-6.0-1.102";"";"";"1";"";"+";"";175768;"";421;"html-keyboard-response";"";""
"423";12;"condition1";"";"";"";"";"";"0.0-6.0-2.102";"";"";"2";"";"img2/Mfalse/2.jpg";"";175985;"";422;"image-keyboard-response";"";""
"424";12;"condition1";"S";"M";"";"";"";"0.0-6.0-3.102";"d";"358";"3";"M";"Press S if the two images were the same, Press D if the two images were different.";"";176343;"";423;"html-keyboard-response";"";""
"425";12;"condition1";"";"";"";"";"";"0.0-6.0-0.103";"";"";"0";"";"img2/false/10.jpg";"";176562;"";424;"image-keyboard-response";"";""
"426";12;"condition1";"";"";"";"";"";"0.0-6.0-1.103";"";"";"1";"";"+";"";176872;"";425;"html-keyboard-response";"";""
"427";12;"condition1";"";"";"";"";"";"0.0-6.0-2.103";"";"";"2";"";"img2/false/10.jpg";"";177076;"";426;"image-keyboard-response";"";""
"428";12;"condition1";"S";"M";"";"";"";"0.0-6.0-3.103";"s";"347";"3";"T";"Press S if the two images were the same, Press D if the two images were different.";"";177424;"";427;"html-keyboard-response";"";""
"429";12;"condition1";"";"";"";"";"";"0.0-6.0-0.104";"";"";"0";"";"img2/faces/11.jpg";"";177635;"";428;"image-keyboard-response";"";""
"430";12;"condition1";"";"";"";"";"";"0.0-6.0-1.104";"";"";"1";"";"+";"";177945;"";429;"html-keyboard-response";"";""
"431";12;"condition1";"";"";"";"";"";"0.0-6.0-2.104";"";"";"2";"";"img2/faces/11.jpg";"";178148;"";430;"image-keyboard-response";"";""
"432";12;"condition1";"S";"H";"";"";"";"0.0-6.0-3.104";"d";"99";"3";"T";"Press S if the two images were the same, Press D if the two images were different.";"";178247;"";431;"html-keyboard-response";"";""
"433";12;"condition1";"";"";"";"";"";"0.0-6.0-0.105";"";"";"0";"";"img2/tools/7.jpg";"";178460;"";432;"image-keyboard-response";"";""
"434";12;"condition1";"";"";"";"";"";"0.0-6.0-1.105";"";"";"1";"";"+";"";178772;"";433;"html-keyboard-response";"";""
"435";12;"condition1";"";"";"";"";"";"0.0-6.0-2.105";"";"";"2";"";"img2/Mtools/7.jpg";"";178991;"";434;"image-keyboard-response";"";""
"436";12;"condition1";"S";"O";"";"";"";"0.0-6.0-3.105";"d";"640";"3";"M";"Press S if the two images were the same, Press D if the two images were different.";"";179632;"";435;"html-keyboard-response";"";""
"437";12;"condition1";"";"";"";"";"";"0.0-6.0-0.106";"";"";"0";"";"img2/false/2.jpg";"";179845;"";436;"image-keyboard-response";"";""
"438";12;"condition1";"";"";"";"";"";"0.0-6.0-1.106";"";"";"1";"";"+";"";180157;"";437;"html-keyboard-response";"";""
"439";12;"condition1";"";"";"";"";"";"0.0-6.0-2.106";"";"";"2";"";"img2/false/2.jpg";"";180375;"";438;"image-keyboard-response";"";""
"440";12;"condition1";"S";"M";"";"";"";"0.0-6.0-3.106";"s";"416";"3";"T";"Press S if the two images were the same, Press D if the two images were different.";"";180791;"";439;"html-keyboard-response";"";""
"441";12;"condition1";"";"";"";"";"";"0.0-6.0-0.107";"";"";"0";"";"img2/french/7.jpg";"";180999;"";440;"image-keyboard-response";"";""
"442";12;"condition1";"";"";"";"";"";"0.0-6.0-1.107";"";"";"1";"";"+";"";181310;"";441;"html-keyboard-response";"";""
"443";12;"condition1";"";"";"";"";"";"0.0-6.0-2.107";"";"";"2";"";"img2/Mfrench/7.jpg";"";181526;"";442;"image-keyboard-response";"";""
"444";12;"condition1";"S";"R";"";"";"";"0.0-6.0-3.107";"d";"169";"3";"M";"Press S if the two images were the same, Press D if the two images were different.";"";181695;"";443;"html-keyboard-response";"";""
"445";12;"condition1";"";"";"";"";"";"0.0-6.0-0.108";"";"";"0";"";"img2/jap/5.jpg";"";181901;"";444;"image-keyboard-response";"";""
"446";12;"condition1";"";"";"";"";"";"0.0-6.0-1.108";"";"";"1";"";"+";"";182212;"";445;"html-keyboard-response";"";""
"447";12;"condition1";"";"";"";"";"";"0.0-6.0-2.108";"";"";"2";"";"img2/Mjap/5.jpg";"";182431;"";446;"image-keyboard-response";"";""
"448";12;"condition1";"S";"J";"";"";"";"0.0-6.0-3.108";"d";"561";"3";"M";"Press S if the two images were the same, Press D if the two images were different.";"";182992;"";447;"html-keyboard-response";"";""
"449";12;"condition1";"";"";"";"";"";"0.0-6.0-0.109";"";"";"0";"";"img2/jap/9.jpg";"";183207;"";448;"image-keyboard-response";"";""
"450";12;"condition1";"";"";"";"";"";"0.0-6.0-1.109";"";"";"1";"";"+";"";183518;"";449;"html-keyboard-response";"";""
"451";12;"condition1";"";"";"";"";"";"0.0-6.0-2.109";"";"";"2";"";"img2/Mjap/9.jpg";"";183721;"";450;"image-keyboard-response";"";""
"452";12;"condition1";"S";"J";"";"";"";"0.0-6.0-3.109";"d";"382";"3";"M";"Press S if the two images were the same, Press D if the two images were different.";"";184104;"";451;"html-keyboard-response";"";""
"453";12;"condition1";"";"";"";"";"";"0.0-6.0-0.110";"";"";"0";"";"img2/Mjap/8.jpg";"";184314;"";452;"image-keyboard-response";"";""
"454";12;"condition1";"";"";"";"";"";"0.0-6.0-1.110";"";"";"1";"";"+";"";184623;"";453;"html-keyboard-response";"";""
"455";12;"condition1";"";"";"";"";"";"0.0-6.0-2.110";"";"";"2";"";"img2/Mjap/5.jpg";"";184839;"";454;"image-keyboard-response";"";""
"456";12;"condition1";"D";"J";"";"";"";"0.0-6.0-3.110";"d";"303";"3";"M";"Press S if the two images were the same, Press D if the two images were different.";"";185143;"";455;"html-keyboard-response";"";""
"457";12;"condition1";"";"";"";"";"";"0.0-6.0-0.111";"";"";"0";"";"img2/tools/8.jpg";"";185354;"";456;"image-keyboard-response";"";""
"458";12;"condition1";"";"";"";"";"";"0.0-6.0-1.111";"";"";"1";"";"+";"";185664;"";457;"html-keyboard-response";"";""
"459";12;"condition1";"";"";"";"";"";"0.0-6.0-2.111";"";"";"2";"";"img2/Mtools/8.jpg";"";185868;"";458;"image-keyboard-response";"";""
"460";12;"condition1";"S";"O";"";"";"";"0.0-6.0-3.111";"d";"187";"3";"M";"Press S if the two images were the same, Press D if the two images were different.";"";186055;"";459;"html-keyboard-response";"";""
"461";12;"condition1";"";"";"";"";"";"0.0-6.0-0.112";"";"";"0";"";"img2/faces/6.jpg";"";186260;"";460;"image-keyboard-response";"";""
"462";12;"condition1";"";"";"";"";"";"0.0-6.0-1.112";"";"";"1";"";"+";"";186570;"";461;"html-keyboard-response";"";""
"463";12;"condition1";"";"";"";"";"";"0.0-6.0-2.112";"";"";"2";"";"img2/Mfaces/6.jpg";"";186774;"";462;"image-keyboard-response";"";""
"464";12;"condition1";"S";"H";"";"";"";"0.0-6.0-3.112";"d";"401";"3";"M";"Press S if the two images were the same, Press D if the two images were different.";"";187175;"";463;"html-keyboard-response";"";""
"465";12;"condition1";"";"";"";"";"";"0.0-6.0-0.113";"";"";"0";"";"img2/french/14.jpg";"";187394;"";464;"image-keyboard-response";"";""
"466";12;"condition1";"";"";"";"";"";"0.0-6.0-1.113";"";"";"1";"";"+";"";187705;"";465;"html-keyboard-response";"";""
"467";12;"condition1";"";"";"";"";"";"0.0-6.0-2.113";"";"";"2";"";"img2/Mfrench/14.jpg";"";187909;"";466;"image-keyboard-response";"";""
"468";12;"condition1";"S";"R";"";"";"";"0.0-6.0-3.113";"d";"434";"3";"M";"Press S if the two images were the same, Press D if the two images were different.";"";188343;"";467;"html-keyboard-response";"";""
"469";12;"condition1";"";"";"";"";"";"0.0-6.0-0.114";"";"";"0";"";"img2/tools/10.jpg";"";188561;"";468;"image-keyboard-response";"";""
"470";12;"condition1";"";"";"";"";"";"0.0-6.0-1.114";"";"";"1";"";"+";"";188870;"";469;"html-keyboard-response";"";""
"471";12;"condition1";"";"";"";"";"";"0.0-6.0-2.114";"";"";"2";"";"img2/tools/10.jpg";"";189091;"";470;"image-keyboard-response";"";""
"472";12;"condition1";"S";"O";"";"";"";"0.0-6.0-3.114";"d";"500";"3";"T";"Press S if the two images were the same, Press D if the two images were different.";"";189591;"";471;"html-keyboard-response";"";""
"473";12;"condition1";"";"";"";"";"";"0.0-6.0-0.115";"";"";"0";"";"img2/faces/12.jpg";"";189808;"";472;"image-keyboard-response";"";""
"474";12;"condition1";"";"";"";"";"";"0.0-6.0-1.115";"";"";"1";"";"+";"";190119;"";473;"html-keyboard-response";"";""
"475";12;"condition1";"";"";"";"";"";"0.0-6.0-2.115";"";"";"2";"";"img2/faces/9.jpg";"";190337;"";474;"image-keyboard-response";"";""
"476";12;"condition1";"D";"H";"";"";"";"0.0-6.0-3.115";"d";"270";"3";"T";"Press S if the two images were the same, Press D if the two images were different.";"";190607;"";475;"html-keyboard-response";"";""
"477";12;"condition1";"";"";"";"";"";"0.0-6.0-0.116";"";"";"0";"";"img2/Mfrench/10.jpg";"";190818;"";476;"image-keyboard-response";"";""
"478";12;"condition1";"";"";"";"";"";"0.0-6.0-1.116";"";"";"1";"";"+";"";191132;"";477;"html-keyboard-response";"";""
"479";12;"condition1";"";"";"";"";"";"0.0-6.0-2.116";"";"";"2";"";"img2/Mfrench/14.jpg";"";191350;"";478;"image-keyboard-response";"";""
"480";12;"condition1";"D";"R";"";"";"";"0.0-6.0-3.116";"d";"329";"3";"M";"Press S if the two images were the same, Press D if the two images were different.";"";191680;"";479;"html-keyboard-response";"";""
"481";12;"condition1";"";"";"";"";"";"0.0-6.0-0.117";"";"";"0";"";"img2/french/11.jpg";"";191895;"";480;"image-keyboard-response";"";""
"482";12;"condition1";"";"";"";"";"";"0.0-6.0-1.117";"";"";"1";"";"+";"";192207;"";481;"html-keyboard-response";"";""
"483";12;"condition1";"";"";"";"";"";"0.0-6.0-2.117";"";"";"2";"";"img2/Mfrench/11.jpg";"";192426;"";482;"image-keyboard-response";"";""
"484";12;"condition1";"S";"R";"";"";"";"0.0-6.0-3.117";"d";"878";"3";"M";"Press S if the two images were the same, Press D if the two images were different.";"";193304;"";483;"html-keyboard-response";"";""
"485";12;"condition1";"";"";"";"";"";"0.0-6.0-0.118";"";"";"0";"";"img2/tools/6.jpg";"";193512;"";484;"image-keyboard-response";"";""
"486";12;"condition1";"";"";"";"";"";"0.0-6.0-1.118";"";"";"1";"";"+";"";193824;"";485;"html-keyboard-response";"";""
"487";12;"condition1";"";"";"";"";"";"0.0-6.0-2.118";"";"";"2";"";"img2/tools/6.jpg";"";194043;"";486;"image-keyboard-response";"";""
"488";12;"condition1";"S";"O";"";"";"";"0.0-6.0-3.118";"s";"276";"3";"T";"Press S if the two images were the same, Press D if the two images were different.";"";194319;"";487;"html-keyboard-response";"";""
"489";12;"condition1";"";"";"";"";"";"0.0-6.0-0.119";"";"";"0";"";"img2/Mtools/1.jpg";"";194525;"";488;"image-keyboard-response";"";""
"490";12;"condition1";"";"";"";"";"";"0.0-6.0-1.119";"";"";"1";"";"+";"";194836;"";489;"html-keyboard-response";"";""
"491";12;"condition1";"";"";"";"";"";"0.0-6.0-2.119";"";"";"2";"";"img2/Mtools/4.jpg";"";195054;"";490;"image-keyboard-response";"";""
"492";12;"condition1";"D";"O";"";"";"";"0.0-6.0-3.119";"d";"232";"3";"M";"Press S if the two images were the same, Press D if the two images were different.";"";195287;"";491;"html-keyboard-response";"";""
"493";12;"condition1";"";"";"";"";"";"0.0-6.0-0.120";"";"";"0";"";"img2/false/8.jpg";"";195492;"";492;"image-keyboard-response";"";""
"494";12;"condition1";"";"";"";"";"";"0.0-6.0-1.120";"";"";"1";"";"+";"";195803;"";493;"html-keyboard-response";"";""
"495";12;"condition1";"";"";"";"";"";"0.0-6.0-2.120";"";"";"2";"";"img2/false/5.jpg";"";196023;"";494;"image-keyboard-response";"";""
"496";12;"condition1";"D";"M";"";"";"";"0.0-6.0-3.120";"d";"520";"3";"T";"Press S if the two images were the same, Press D if the two images were different.";"";196543;"";495;"html-keyboard-response";"";""
"497";12;"condition1";"";"";"";"";"";"0.0-6.0-0.121";"";"";"0";"";"img2/tools/3.jpg";"";196753;"";496;"image-keyboard-response";"";""
"498";12;"condition1";"";"";"";"";"";"0.0-6.0-1.121";"";"";"1";"";"+";"";197063;"";497;"html-keyboard-response";"";""
"499";12;"condition1";"";"";"";"";"";"0.0-6.0-2.121";"";"";"2";"";"img2/Mtools/3.jpg";"";197282;"";498;"image-keyboard-response";"";""
"500";12;"condition1";"S";"O";"";"";"";"0.0-6.0-3.121";"d";"237";"3";"M";"Press S if the two images were the same, Press D if the two images were different.";"";197519;"";499;"html-keyboard-response";"";""
"501";12;"condition1";"";"";"";"";"";"0.0-6.0-0.122";"";"";"0";"";"img2/tools/9.jpg";"";197736;"";500;"image-keyboard-response";"";""
"502";12;"condition1";"";"";"";"";"";"0.0-6.0-1.122";"";"";"1";"";"+";"";198048;"";501;"html-keyboard-response";"";""
"503";12;"condition1";"";"";"";"";"";"0.0-6.0-2.122";"";"";"2";"";"img2/tools/9.jpg";"";198266;"";502;"image-keyboard-response";"";""
"504";12;"condition1";"S";"O";"";"";"";"0.0-6.0-3.122";"d";"374";"3";"T";"Press S if the two images were the same, Press D if the two images were different.";"";198640;"";503;"html-keyboard-response";"";""
"505";12;"condition1";"";"";"";"";"";"0.0-6.0-0.123";"";"";"0";"";"img2/Mjap/9.jpg";"";198858;"";504;"image-keyboard-response";"";""
"506";12;"condition1";"";"";"";"";"";"0.0-6.0-1.123";"";"";"1";"";"+";"";199168;"";505;"html-keyboard-response";"";""
"507";12;"condition1";"";"";"";"";"";"0.0-6.0-2.123";"";"";"2";"";"img2/Mjap/4.jpg";"";199371;"";506;"image-keyboard-response";"";""
"508";12;"condition1";"D";"J";"";"";"";"0.0-6.0-3.123";"s";"1547";"3";"M";"Press S if the two images were the same, Press D if the two images were different.";"";200919;"";507;"html-keyboard-response";"";""
"509";12;"condition1";"";"";"";"";"";"0.0-6.0-0.124";"";"";"0";"";"img2/Mfalse/11.jpg";"";201134;"";508;"image-keyboard-response";"";""
"510";12;"condition1";"";"";"";"";"";"0.0-6.0-1.124";"";"";"1";"";"+";"";201446;"";509;"html-keyboard-response";"";""
"511";12;"condition1";"";"";"";"";"";"0.0-6.0-2.124";"";"";"2";"";"img2/Mfalse/3.jpg";"";201662;"";510;"image-keyboard-response";"";""
"512";12;"condition1";"D";"M";"";"";"";"0.0-6.0-3.124";"d";"993";"3";"M";"Press S if the two images were the same, Press D if the two images were different.";"";202655;"";511;"html-keyboard-response";"";""
"513";12;"condition1";"";"";"";"";"";"0.0-6.0-0.125";"";"";"0";"";"img2/false/11.jpg";"";202863;"";512;"image-keyboard-response";"";""
"514";12;"condition1";"";"";"";"";"";"0.0-6.0-1.125";"";"";"1";"";"+";"";203175;"";513;"html-keyboard-response";"";""
"515";12;"condition1";"";"";"";"";"";"0.0-6.0-2.125";"";"";"2";"";"img2/false/11.jpg";"";203394;"";514;"image-keyboard-response";"";""
"516";12;"condition1";"S";"M";"";"";"";"0.0-6.0-3.125";"s";"374";"3";"T";"Press S if the two images were the same, Press D if the two images were different.";"";203768;"";515;"html-keyboard-response";"";""
"517";12;"condition1";"";"";"";"";"";"0.0-6.0-0.126";"";"";"0";"";"img2/french/2.jpg";"";203971;"";516;"image-keyboard-response";"";""
"518";12;"condition1";"";"";"";"";"";"0.0-6.0-1.126";"";"";"1";"";"+";"";204281;"";517;"html-keyboard-response";"";""
"519";12;"condition1";"";"";"";"";"";"0.0-6.0-2.126";"";"";"2";"";"img2/french/11.jpg";"";204483;"";518;"image-keyboard-response";"";""
"520";12;"condition1";"D";"R";"";"";"";"0.0-6.0-3.126";"d";"251";"3";"T";"Press S if the two images were the same, Press D if the two images were different.";"";204735;"";519;"html-keyboard-response";"";""
"521";12;"condition1";"";"";"";"";"";"0.0-6.0-0.127";"";"";"0";"";"img2/faces/13.jpg";"";204950;"";520;"image-keyboard-response";"";""
"522";12;"condition1";"";"";"";"";"";"0.0-6.0-1.127";"";"";"1";"";"+";"";205256;"";521;"html-keyboard-response";"";""
"523";12;"condition1";"";"";"";"";"";"0.0-6.0-2.127";"";"";"2";"";"img2/Mfaces/13.jpg";"";205460;"";522;"image-keyboard-response";"";""
"524";12;"condition1";"S";"H";"";"";"";"0.0-6.0-3.127";"d";"539";"3";"M";"Press S if the two images were the same, Press D if the two images were different.";"";205999;"";523;"html-keyboard-response";"";""
"525";12;"condition1";"";"";"";"";"";"0.0-6.0-0.128";"";"";"0";"";"img2/false/6.jpg";"";206209;"";524;"image-keyboard-response";"";""
"526";12;"condition1";"";"";"";"";"";"0.0-6.0-1.128";"";"";"1";"";"+";"";206521;"";525;"html-keyboard-response";"";""
"527";12;"condition1";"";"";"";"";"";"0.0-6.0-2.128";"";"";"2";"";"img2/false/6.jpg";"";206741;"";526;"image-keyboard-response";"";""
"528";12;"condition1";"S";"M";"";"";"";"0.0-6.0-3.128";"d";"234";"3";"T";"Press S if the two images were the same, Press D if the two images were different.";"";206975;"";527;"html-keyboard-response";"";""
"529";12;"condition1";"";"";"";"";"";"0.0-6.0-0.129";"";"";"0";"";"img2/Mtools/8.jpg";"";207190;"";528;"image-keyboard-response";"";""
"530";12;"condition1";"";"";"";"";"";"0.0-6.0-1.129";"";"";"1";"";"+";"";207501;"";529;"html-keyboard-response";"";""
"531";12;"condition1";"";"";"";"";"";"0.0-6.0-2.129";"";"";"2";"";"img2/Mtools/5.jpg";"";207719;"";530;"image-keyboard-response";"";""
"532";12;"condition1";"D";"O";"";"";"";"0.0-6.0-3.129";"d";"496";"3";"M";"Press S if the two images were the same, Press D if the two images were different.";"";208215;"";531;"html-keyboard-response";"";""
"533";12;"condition1";"";"";"";"";"";"0.0-6.0-0.130";"";"";"0";"";"img2/Mjap/5.jpg";"";208421;"";532;"image-keyboard-response";"";""
"534";12;"condition1";"";"";"";"";"";"0.0-6.0-1.130";"";"";"1";"";"+";"";208731;"";533;"html-keyboard-response";"";""
"535";12;"condition1";"";"";"";"";"";"0.0-6.0-2.130";"";"";"2";"";"img2/Mjap/6.jpg";"";208949;"";534;"image-keyboard-response";"";""
"536";12;"condition1";"D";"J";"";"";"";"0.0-6.0-3.130";"s";"370";"3";"M";"Press S if the two images were the same, Press D if the two images were different.";"";209319;"";535;"html-keyboard-response";"";""
"537";12;"condition1";"";"";"";"";"";"0.0-6.0-0.131";"";"";"0";"";"img2/jap/4.jpg";"";209527;"";536;"image-keyboard-response";"";""
"538";12;"condition1";"";"";"";"";"";"0.0-6.0-1.131";"";"";"1";"";"+";"";209838;"";537;"html-keyboard-response";"";""
"539";12;"condition1";"";"";"";"";"";"0.0-6.0-2.131";"";"";"2";"";"img2/Mjap/4.jpg";"";210057;"";538;"image-keyboard-response";"";""
"540";12;"condition1";"S";"J";"";"";"";"0.0-6.0-3.131";"d";"94";"3";"M";"Press S if the two images were the same, Press D if the two images were different.";"";210151;"";539;"html-keyboard-response";"";""
"541";12;"condition1";"";"";"";"";"";"0.0-6.0-0.132";"";"";"0";"";"img2/Mtools/10.jpg";"";210371;"";540;"image-keyboard-response";"";""
"542";12;"condition1";"";"";"";"";"";"0.0-6.0-1.132";"";"";"1";"";"+";"";210683;"";541;"html-keyboard-response";"";""
"543";12;"condition1";"";"";"";"";"";"0.0-6.0-2.132";"";"";"2";"";"img2/Mtools/14.jpg";"";210902;"";542;"image-keyboard-response";"";""
"544";12;"condition1";"D";"O";"";"";"";"0.0-6.0-3.132";"d";"522";"3";"M";"Press S if the two images were the same, Press D if the two images were different.";"";211423;"";543;"html-keyboard-response";"";""
"545";12;"condition1";"";"";"";"";"";"0.0-6.0-0.133";"";"";"0";"";"img2/Mtools/14.jpg";"";211636;"";544;"image-keyboard-response";"";""
"546";12;"condition1";"";"";"";"";"";"0.0-6.0-1.133";"";"";"1";"";"+";"";211946;"";545;"html-keyboard-response";"";""
"547";12;"condition1";"";"";"";"";"";"0.0-6.0-2.133";"";"";"2";"";"img2/Mtools/12.jpg";"";212150;"";546;"image-keyboard-response";"";""
"548";12;"condition1";"D";"O";"";"";"";"0.0-6.0-3.133";"d";"402";"3";"M";"Press S if the two images were the same, Press D if the two images were different.";"";212552;"";547;"html-keyboard-response";"";""
"549";12;"condition1";"";"";"";"";"";"0.0-6.0-0.134";"";"";"0";"";"img2/tools/5.jpg";"";212755;"";548;"image-keyboard-response";"";""
"550";12;"condition1";"";"";"";"";"";"0.0-6.0-1.134";"";"";"1";"";"+";"";213067;"";549;"html-keyboard-response";"";""
"551";12;"condition1";"";"";"";"";"";"0.0-6.0-2.134";"";"";"2";"";"img2/tools/5.jpg";"";213286;"";550;"image-keyboard-response";"";""
"552";12;"condition1";"S";"O";"";"";"";"0.0-6.0-3.134";"s";"481";"3";"T";"Press S if the two images were the same, Press D if the two images were different.";"";213767;"";551;"html-keyboard-response";"";""
"553";12;"condition1";"";"";"";"";"";"0.0-6.0-0.135";"";"";"0";"";"img2/false/5.jpg";"";213973;"";552;"image-keyboard-response";"";""
"554";12;"condition1";"";"";"";"";"";"0.0-6.0-1.135";"";"";"1";"";"+";"";214284;"";553;"html-keyboard-response";"";""
"555";12;"condition1";"";"";"";"";"";"0.0-6.0-2.135";"";"";"2";"";"img2/false/5.jpg";"";214503;"";554;"image-keyboard-response";"";""
"556";12;"condition1";"S";"M";"";"";"";"0.0-6.0-3.135";"s";"513";"3";"T";"Press S if the two images were the same, Press D if the two images were different.";"";215016;"";555;"html-keyboard-response";"";""
"557";12;"condition1";"";"";"";"";"";"0.0-6.0-0.136";"";"";"0";"";"img2/french/5.jpg";"";215234;"";556;"image-keyboard-response";"";""
"558";12;"condition1";"";"";"";"";"";"0.0-6.0-1.136";"";"";"1";"";"+";"";215544;"";557;"html-keyboard-response";"";""
"559";12;"condition1";"";"";"";"";"";"0.0-6.0-2.136";"";"";"2";"";"img2/french/5.jpg";"";215762;"";558;"image-keyboard-response";"";""
"560";12;"condition1";"S";"R";"";"";"";"0.0-6.0-3.136";"s";"270";"3";"T";"Press S if the two images were the same, Press D if the two images were different.";"";216032;"";559;"html-keyboard-response";"";""
"561";12;"condition1";"";"";"";"";"";"0.0-6.0-0.137";"";"";"0";"";"img2/false/9.jpg";"";216243;"";560;"image-keyboard-response";"";""
"562";12;"condition1";"";"";"";"";"";"0.0-6.0-1.137";"";"";"1";"";"+";"";216554;"";561;"html-keyboard-response";"";""
"563";12;"condition1";"";"";"";"";"";"0.0-6.0-2.137";"";"";"2";"";"img2/Mfalse/9.jpg";"";216772;"";562;"image-keyboard-response";"";""
"564";12;"condition1";"S";"M";"";"";"";"0.0-6.0-3.137";"d";"211";"3";"M";"Press S if the two images were the same, Press D if the two images were different.";"";216983;"";563;"html-keyboard-response";"";""
"565";12;"condition1";"";"";"";"";"";"0.0-6.0-0.138";"";"";"0";"";"img2/jap/3.jpg";"";217195;"";564;"image-keyboard-response";"";""
"566";12;"condition1";"";"";"";"";"";"0.0-6.0-1.138";"";"";"1";"";"+";"";217506;"";565;"html-keyboard-response";"";""
"567";12;"condition1";"";"";"";"";"";"0.0-6.0-2.138";"";"";"2";"";"img2/jap/3.jpg";"";217708;"";566;"image-keyboard-response";"";""
"568";12;"condition1";"S";"J";"";"";"";"0.0-6.0-3.138";"s";"451";"3";"T";"Press S if the two images were the same, Press D if the two images were different.";"";218159;"";567;"html-keyboard-response";"";""
"569";12;"condition1";"";"";"";"";"";"0.0-6.0-0.139";"";"";"0";"";"img2/false/12.jpg";"";218378;"";568;"image-keyboard-response";"";""
"570";12;"condition1";"";"";"";"";"";"0.0-6.0-1.139";"";"";"1";"";"+";"";218692;"";569;"html-keyboard-response";"";""
"571";12;"condition1";"";"";"";"";"";"0.0-6.0-2.139";"";"";"2";"";"img2/false/12.jpg";"";218909;"";570;"image-keyboard-response";"";""
"572";12;"condition1";"S";"M";"";"";"";"0.0-6.0-3.139";"s";"346";"3";"T";"Press S if the two images were the same, Press D if the two images were different.";"";219255;"";571;"html-keyboard-response";"";""
"573";12;"condition1";"";"";"";"";"";"0.0-6.0-0.140";"";"";"0";"";"img2/french/9.jpg";"";219473;"";572;"image-keyboard-response";"";""
"574";12;"condition1";"";"";"";"";"";"0.0-6.0-1.140";"";"";"1";"";"+";"";219785;"";573;"html-keyboard-response";"";""
"575";12;"condition1";"";"";"";"";"";"0.0-6.0-2.140";"";"";"2";"";"img2/Mfrench/9.jpg";"";219987;"";574;"image-keyboard-response";"";""
"576";12;"condition1";"S";"R";"";"";"";"0.0-6.0-3.140";"d";"228";"3";"M";"Press S if the two images were the same, Press D if the two images were different.";"";220215;"";575;"html-keyboard-response";"";""
"577";12;"condition1";"";"";"";"";"";"0.0-6.0-0.141";"";"";"0";"";"img2/french/4.jpg";"";220423;"";576;"image-keyboard-response";"";""
"578";12;"condition1";"";"";"";"";"";"0.0-6.0-1.141";"";"";"1";"";"+";"";220736;"";577;"html-keyboard-response";"";""
"579";12;"condition1";"";"";"";"";"";"0.0-6.0-2.141";"";"";"2";"";"img2/french/4.jpg";"";220954;"";578;"image-keyboard-response";"";""
"580";12;"condition1";"S";"R";"";"";"";"0.0-6.0-3.141";"s";"502";"3";"T";"Press S if the two images were the same, Press D if the two images were different.";"";221455;"";579;"html-keyboard-response";"";""
"581";12;"condition1";"";"";"";"";"";"0.0-6.0-0.142";"";"";"0";"";"img2/faces/14.jpg";"";221668;"";580;"image-keyboard-response";"";""
"582";12;"condition1";"";"";"";"";"";"0.0-6.0-1.142";"";"";"1";"";"+";"";221981;"";581;"html-keyboard-response";"";""
"583";12;"condition1";"";"";"";"";"";"0.0-6.0-2.142";"";"";"2";"";"img2/faces/14.jpg";"";222200;"";582;"image-keyboard-response";"";""
"584";12;"condition1";"S";"H";"";"";"";"0.0-6.0-3.142";"s";"392";"3";"T";"Press S if the two images were the same, Press D if the two images were different.";"";222591;"";583;"html-keyboard-response";"";""
"585";12;"condition1";"";"";"";"";"";"0.0-6.0-0.143";"";"";"0";"";"img2/jap/6.jpg";"";222811;"";584;"image-keyboard-response";"";""
"586";12;"condition1";"";"";"";"";"";"0.0-6.0-1.143";"";"";"1";"";"+";"";223123;"";585;"html-keyboard-response";"";""
"587";12;"condition1";"";"";"";"";"";"0.0-6.0-2.143";"";"";"2";"";"img2/Mjap/6.jpg";"";223339;"";586;"image-keyboard-response";"";""
"588";12;"condition1";"S";"J";"";"";"";"0.0-6.0-3.143";"d";"196";"3";"M";"Press S if the two images were the same, Press D if the two images were different.";"";223535;"";587;"html-keyboard-response";"";""
"589";12;"condition1";"";"";"";"";"";"0.0-6.0-0.144";"";"";"0";"";"img2/french/10.jpg";"";223746;"";588;"image-keyboard-response";"";""
"590";12;"condition1";"";"";"";"";"";"0.0-6.0-1.144";"";"";"1";"";"+";"";224060;"";589;"html-keyboard-response";"";""
"591";12;"condition1";"";"";"";"";"";"0.0-6.0-2.144";"";"";"2";"";"img2/Mfrench/10.jpg";"";224276;"";590;"image-keyboard-response";"";""
"592";12;"condition1";"S";"R";"";"";"";"0.0-6.0-3.144";"d";"1068";"3";"M";"Press S if the two images were the same, Press D if the two images were different.";"";225344;"";591;"html-keyboard-response";"";""
"593";12;"condition1";"";"";"";"";"";"0.0-6.0-0.145";"";"";"0";"";"img2/french/4.jpg";"";225556;"";592;"image-keyboard-response";"";""
"594";12;"condition1";"";"";"";"";"";"0.0-6.0-1.145";"";"";"1";"";"+";"";225866;"";593;"html-keyboard-response";"";""
"595";12;"condition1";"";"";"";"";"";"0.0-6.0-2.145";"";"";"2";"";"img2/french/12.jpg";"";226082;"";594;"image-keyboard-response";"";""
"596";12;"condition1";"D";"R";"";"";"";"0.0-6.0-3.145";"d";"373";"3";"T";"Press S if the two images were the same, Press D if the two images were different.";"";226455;"";595;"html-keyboard-response";"";""
"597";12;"condition1";"";"";"";"";"";"0.0-6.0-0.146";"";"";"0";"";"img2/jap/14.jpg";"";226674;"";596;"image-keyboard-response";"";""
"598";12;"condition1";"";"";"";"";"";"0.0-6.0-1.146";"";"";"1";"";"+";"";226984;"";597;"html-keyboard-response";"";""
"599";12;"condition1";"";"";"";"";"";"0.0-6.0-2.146";"";"";"2";"";"img2/jap/12.jpg";"";227204;"";598;"image-keyboard-response";"";""
"600";12;"condition1";"D";"J";"";"";"";"0.0-6.0-3.146";"d";"395";"3";"T";"Press S if the two images were the same, Press D if the two images were different.";"";227599;"";599;"html-keyboard-response";"";""
"601";12;"condition1";"";"";"";"";"";"0.0-6.0-0.147";"";"";"0";"";"img2/false/4.jpg";"";227812;"";600;"image-keyboard-response";"";""
"602";12;"condition1";"";"";"";"";"";"0.0-6.0-1.147";"";"";"1";"";"+";"";228121;"";601;"html-keyboard-response";"";""
"603";12;"condition1";"";"";"";"";"";"0.0-6.0-2.147";"";"";"2";"";"img2/Mfalse/4.jpg";"";228325;"";602;"image-keyboard-response";"";""
"604";12;"condition1";"S";"M";"";"";"";"0.0-6.0-3.147";"d";"506";"3";"M";"Press S if the two images were the same, Press D if the two images were different.";"";228832;"";603;"html-keyboard-response";"";""
"605";12;"condition1";"";"";"";"";"";"0.0-6.0-0.148";"";"";"0";"";"img2/false/10.jpg";"";229043;"";604;"image-keyboard-response";"";""
"606";12;"condition1";"";"";"";"";"";"0.0-6.0-1.148";"";"";"1";"";"+";"";229354;"";605;"html-keyboard-response";"";""
"607";12;"condition1";"";"";"";"";"";"0.0-6.0-2.148";"";"";"2";"";"img2/Mfalse/10.jpg";"";229574;"";606;"image-keyboard-response";"";""
"608";12;"condition1";"S";"M";"";"";"";"0.0-6.0-3.148";"d";"553";"3";"M";"Press S if the two images were the same, Press D if the two images were different.";"";230127;"";607;"html-keyboard-response";"";""
"609";12;"condition1";"";"";"";"";"";"0.0-6.0-0.149";"";"";"0";"";"img2/jap/2.jpg";"";230339;"";608;"image-keyboard-response";"";""
"610";12;"condition1";"";"";"";"";"";"0.0-6.0-1.149";"";"";"1";"";"+";"";230650;"";609;"html-keyboard-response";"";""
"611";12;"condition1";"";"";"";"";"";"0.0-6.0-2.149";"";"";"2";"";"img2/jap/2.jpg";"";230853;"";610;"image-keyboard-response";"";""
"612";12;"condition1";"S";"J";"";"";"";"0.0-6.0-3.149";"s";"242";"3";"T";"Press S if the two images were the same, Press D if the two images were different.";"";231096;"";611;"html-keyboard-response";"";""
"613";12;"condition1";"";"";"";"";"";"0.0-6.0-0.150";"";"";"0";"";"img2/Mtools/3.jpg";"";231307;"";612;"image-keyboard-response";"";""
"614";12;"condition1";"";"";"";"";"";"0.0-6.0-1.150";"";"";"1";"";"+";"";231621;"";613;"html-keyboard-response";"";""
"615";12;"condition1";"";"";"";"";"";"0.0-6.0-2.150";"";"";"2";"";"img2/Mtools/4.jpg";"";231838;"";614;"image-keyboard-response";"";""
"616";12;"condition1";"D";"O";"";"";"";"0.0-6.0-3.150";"d";"193";"3";"M";"Press S if the two images were the same, Press D if the two images were different.";"";232031;"";615;"html-keyboard-response";"";""
"617";12;"condition1";"";"";"";"";"";"0.0-6.0-0.151";"";"";"0";"";"img2/tools/13.jpg";"";232246;"";616;"image-keyboard-response";"";""
"618";12;"condition1";"";"";"";"";"";"0.0-6.0-1.151";"";"";"1";"";"+";"";232559;"";617;"html-keyboard-response";"";""
"619";12;"condition1";"";"";"";"";"";"0.0-6.0-2.151";"";"";"2";"";"img2/tools/13.jpg";"";232779;"";618;"image-keyboard-response";"";""
"620";12;"condition1";"S";"O";"";"";"";"0.0-6.0-3.151";"s";"300";"3";"T";"Press S if the two images were the same, Press D if the two images were different.";"";233079;"";619;"html-keyboard-response";"";""
"621";12;"condition1";"";"";"";"";"";"0.0-6.0-0.152";"";"";"0";"";"img2/tools/7.jpg";"";233293;"";620;"image-keyboard-response";"";""
"622";12;"condition1";"";"";"";"";"";"0.0-6.0-1.152";"";"";"1";"";"+";"";233604;"";621;"html-keyboard-response";"";""
"623";12;"condition1";"";"";"";"";"";"0.0-6.0-2.152";"";"";"2";"";"img2/tools/7.jpg";"";233823;"";622;"image-keyboard-response";"";""
"624";12;"condition1";"S";"O";"";"";"";"0.0-6.0-3.152";"s";"448";"3";"T";"Press S if the two images were the same, Press D if the two images were different.";"";234271;"";623;"html-keyboard-response";"";""
"625";12;"condition1";"";"";"";"";"";"0.0-6.0-0.153";"";"";"0";"";"img2/false/7.jpg";"";234478;"";624;"image-keyboard-response";"";""
"626";12;"condition1";"";"";"";"";"";"0.0-6.0-1.153";"";"";"1";"";"+";"";234791;"";625;"html-keyboard-response";"";""
"627";12;"condition1";"";"";"";"";"";"0.0-6.0-2.153";"";"";"2";"";"img2/false/7.jpg";"";234996;"";626;"image-keyboard-response";"";""
"628";12;"condition1";"S";"M";"";"";"";"0.0-6.0-3.153";"s";"300";"3";"T";"Press S if the two images were the same, Press D if the two images were different.";"";235296;"";627;"html-keyboard-response";"";""
"629";12;"condition1";"";"";"";"";"";"0.0-6.0-0.154";"";"";"0";"";"img2/french/6.jpg";"";235513;"";628;"image-keyboard-response";"";""
"630";12;"condition1";"";"";"";"";"";"0.0-6.0-1.154";"";"";"1";"";"+";"";235825;"";629;"html-keyboard-response";"";""
"631";12;"condition1";"";"";"";"";"";"0.0-6.0-2.154";"";"";"2";"";"img2/french/6.jpg";"";236041;"";630;"image-keyboard-response";"";""
"632";12;"condition1";"S";"R";"";"";"";"0.0-6.0-3.154";"s";"231";"3";"T";"Press S if the two images were the same, Press D if the two images were different.";"";236272;"";631;"html-keyboard-response";"";""
"633";12;"condition1";"";"";"";"";"";"0.0-6.0-0.155";"";"";"0";"";"img2/Mfrench/3.jpg";"";236479;"";632;"image-keyboard-response";"";""
"634";12;"condition1";"";"";"";"";"";"0.0-6.0-1.155";"";"";"1";"";"+";"";236789;"";633;"html-keyboard-response";"";""
"635";12;"condition1";"";"";"";"";"";"0.0-6.0-2.155";"";"";"2";"";"img2/Mfrench/4.jpg";"";237007;"";634;"image-keyboard-response";"";""
"636";12;"condition1";"D";"R";"";"";"";"0.0-6.0-3.155";"d";"376";"3";"M";"Press S if the two images were the same, Press D if the two images were different.";"";237383;"";635;"html-keyboard-response";"";""
"637";12;"condition1";"";"";"";"";"";"0.0-6.0-0.156";"";"";"0";"";"img2/Mfaces/4.jpg";"";237598;"";636;"image-keyboard-response";"";""
"638";12;"condition1";"";"";"";"";"";"0.0-6.0-1.156";"";"";"1";"";"+";"";237909;"";637;"html-keyboard-response";"";""
"639";12;"condition1";"";"";"";"";"";"0.0-6.0-2.156";"";"";"2";"";"img2/Mfaces/12.jpg";"";238128;"";638;"image-keyboard-response";"";""
"640";12;"condition1";"D";"H";"";"";"";"0.0-6.0-3.156";"d";"535";"3";"M";"Press S if the two images were the same, Press D if the two images were different.";"";238663;"";639;"html-keyboard-response";"";""
"641";12;"condition1";"";"";"";"";"";"0.0-6.0-0.157";"";"";"0";"";"img2/tools/5.jpg";"";238876;"";640;"image-keyboard-response";"";""
"642";12;"condition1";"";"";"";"";"";"0.0-6.0-1.157";"";"";"1";"";"+";"";239187;"";641;"html-keyboard-response";"";""
"643";12;"condition1";"";"";"";"";"";"0.0-6.0-2.157";"";"";"2";"";"img2/tools/6.jpg";"";239405;"";642;"image-keyboard-response";"";""
"644";12;"condition1";"D";"O";"";"";"";"0.0-6.0-3.157";"d";"498";"3";"T";"Press S if the two images were the same, Press D if the two images were different.";"";239903;"";643;"html-keyboard-response";"";""
"645";12;"condition1";"";"";"";"";"";"0.0-6.0-0.158";"";"";"0";"";"img2/french/1.jpg";"";240122;"";644;"image-keyboard-response";"";""
"646";12;"condition1";"";"";"";"";"";"0.0-6.0-1.158";"";"";"1";"";"+";"";240432;"";645;"html-keyboard-response";"";""
"647";12;"condition1";"";"";"";"";"";"0.0-6.0-2.158";"";"";"2";"";"img2/Mfrench/1.jpg";"";240649;"";646;"image-keyboard-response";"";""
"648";12;"condition1";"S";"R";"";"";"";"0.0-6.0-3.158";"d";"382";"3";"M";"Press S if the two images were the same, Press D if the two images were different.";"";241031;"";647;"html-keyboard-response";"";""
"649";12;"condition1";"";"";"";"";"";"0.0-6.0-0.159";"";"";"0";"";"img2/false/3.jpg";"";241238;"";648;"image-keyboard-response";"";""
"650";12;"condition1";"";"";"";"";"";"0.0-6.0-1.159";"";"";"1";"";"+";"";241551;"";649;"html-keyboard-response";"";""
"651";12;"condition1";"";"";"";"";"";"0.0-6.0-2.159";"";"";"2";"";"img2/Mfalse/3.jpg";"";241770;"";650;"image-keyboard-response";"";""
"652";12;"condition1";"S";"M";"";"";"";"0.0-6.0-3.159";"d";"389";"3";"M";"Press S if the two images were the same, Press D if the two images were different.";"";242160;"";651;"html-keyboard-response";"";""
"653";12;"condition1";"";"";"";"";"";"0.0-6.0-0.160";"";"";"0";"";"img2/Mtools/4.jpg";"";242375;"";652;"image-keyboard-response";"";""
"654";12;"condition1";"";"";"";"";"";"0.0-6.0-1.160";"";"";"1";"";"+";"";242687;"";653;"html-keyboard-response";"";""
"655";12;"condition1";"";"";"";"";"";"0.0-6.0-2.160";"";"";"2";"";"img2/Mtools/12.jpg";"";242903;"";654;"image-keyboard-response";"";""
"656";12;"condition1";"D";"O";"";"";"";"0.0-6.0-3.160";"d";"489";"3";"M";"Press S if the two images were the same, Press D if the two images were different.";"";243392;"";655;"html-keyboard-response";"";""
"657";12;"condition1";"";"";"";"";"";"0.0-6.0-0.161";"";"";"0";"";"img2/Mfrench/7.jpg";"";243599;"";656;"image-keyboard-response";"";""
"658";12;"condition1";"";"";"";"";"";"0.0-6.0-1.161";"";"";"1";"";"+";"";243910;"";657;"html-keyboard-response";"";""
"659";12;"condition1";"";"";"";"";"";"0.0-6.0-2.161";"";"";"2";"";"img2/Mfrench/10.jpg";"";244126;"";658;"image-keyboard-response";"";""
"660";12;"condition1";"D";"R";"";"";"";"0.0-6.0-3.161";"d";"369";"3";"M";"Press S if the two images were the same, Press D if the two images were different.";"";244495;"";659;"html-keyboard-response";"";""
"661";12;"condition1";"";"";"";"";"";"0.0-6.0-0.162";"";"";"0";"";"img2/Mfalse/13.jpg";"";244703;"";660;"image-keyboard-response";"";""
"662";12;"condition1";"";"";"";"";"";"0.0-6.0-1.162";"";"";"1";"";"+";"";245014;"";661;"html-keyboard-response";"";""
"663";12;"condition1";"";"";"";"";"";"0.0-6.0-2.162";"";"";"2";"";"img2/Mfalse/1.jpg";"";245232;"";662;"image-keyboard-response";"";""
"664";12;"condition1";"D";"M";"";"";"";"0.0-6.0-3.162";"d";"391";"3";"M";"Press S if the two images were the same, Press D if the two images were different.";"";245623;"";663;"html-keyboard-response";"";""
"665";12;"condition1";"";"";"";"";"";"0.0-6.0-0.163";"";"";"0";"";"img2/jap/6.jpg";"";245840;"";664;"image-keyboard-response";"";""
"666";12;"condition1";"";"";"";"";"";"0.0-6.0-1.163";"";"";"1";"";"+";"";246149;"";665;"html-keyboard-response";"";""
"667";12;"condition1";"";"";"";"";"";"0.0-6.0-2.163";"";"";"2";"";"img2/jap/6.jpg";"";246364;"";666;"image-keyboard-response";"";""
"668";12;"condition1";"S";"J";"";"";"";"0.0-6.0-3.163";"d";"500";"3";"T";"Press S if the two images were the same, Press D if the two images were different.";"";246864;"";667;"html-keyboard-response";"";""
"669";12;"condition1";"";"";"";"";"";"0.0-6.0-0.164";"";"";"0";"";"img2/false/12.jpg";"";247078;"";668;"image-keyboard-response";"";""
"670";12;"condition1";"";"";"";"";"";"0.0-6.0-1.164";"";"";"1";"";"+";"";247390;"";669;"html-keyboard-response";"";""
"671";12;"condition1";"";"";"";"";"";"0.0-6.0-2.164";"";"";"2";"";"img2/false/9.jpg";"";247605;"";670;"image-keyboard-response";"";""
"672";12;"condition1";"D";"M";"";"";"";"0.0-6.0-3.164";"d";"396";"3";"T";"Press S if the two images were the same, Press D if the two images were different.";"";248002;"";671;"html-keyboard-response";"";""
"673";12;"condition1";"";"";"";"";"";"0.0-6.0-0.165";"";"";"0";"";"img2/faces/12.jpg";"";248211;"";672;"image-keyboard-response";"";""
"674";12;"condition1";"";"";"";"";"";"0.0-6.0-1.165";"";"";"1";"";"+";"";248523;"";673;"html-keyboard-response";"";""
"675";12;"condition1";"";"";"";"";"";"0.0-6.0-2.165";"";"";"2";"";"img2/faces/12.jpg";"";248739;"";674;"image-keyboard-response";"";""
"676";12;"condition1";"S";"H";"";"";"";"0.0-6.0-3.165";"s";"452";"3";"T";"Press S if the two images were the same, Press D if the two images were different.";"";249192;"";675;"html-keyboard-response";"";""
"677";12;"condition1";"";"";"";"";"";"0.0-6.0-0.166";"";"";"0";"";"img2/Mfaces/12.jpg";"";249409;"";676;"image-keyboard-response";"";""
"678";12;"condition1";"";"";"";"";"";"0.0-6.0-1.166";"";"";"1";"";"+";"";249720;"";677;"html-keyboard-response";"";""
