workerid,proliferate.condition,0,1,failed_audio,failed_images,failed_video,internal_node_id,response,rt,stimulus,success,time_elapsed,timeout,trial_index,trial_type,view_history,error
12,condition1,,,[],[],[],0.0-0.0,,,,True,755,False,0,preload,,
12,condition1,,,,,,0.0-1.0,,22977,,,23732,,1,instructions,"[{'page_index': 0, 'viewing_time': 18712}, {'page_index': 1, 'viewing_time': 1130}, {'page_index': 2, 'viewing_time': 491}, {'page_index': 3, 'viewing_time': 2644}]",
12,condition1,,,,,,0.0-2.0-0.0,,,img2/tools/2.jpg,,23957,,2,image-keyboard-response,,
12,condition1,,,,,,0.0-2.0-1.0,,,+,,24270,,3,html-keyboard-response,,
12,condition1,,,,,,0.0-2.0-2.0,,,img2/Mtools/2.jpg,,24472,,4,image-keyboard-response,,
12,condition1,,,,,,0.0-2.0-3.0,s,9488,"Press S if the two images were the same, Press D if the two images were different.",,33960,,5,html-keyboard-response,,
12,condition1,,,,,,0.0-3.0,,5372,,,39332,,6,instructions,"[{'page_index': 0, 'viewing_time': 5372}]",
12,condition1,,,,,,0.0-4.0-0.0,,,img2/jap/2.jpg,,39542,,7,image-keyboard-response,,
12,condition1,,,,,,0.0-4.0-1.0,,,+,,39844,,8,html-keyboard-response,,
12,condition1,,,,,,0.0-4.0-2.0,,,img2/jap/3.jpg,,40055,,9,image-keyboard-response,,
12,condition1,,,,,,0.0-4.0-3.0,d,3537,"Press S if the two images were the same, Press D if the two images were different.",,43593,,10,html-keyboard-response,,
12,condition1,,,,,,0.0-5.0,,2276,,,45869,,11,instructions,"[{'page_index': 0, 'viewing_time': 2276}]",
12,condition1,,,,,,0.0-6.0-0.0,,,img2/jap/5.jpg,,46080,,12,image-keyboard-response,,
12,condition1,,,,,,0.0-6.0-1.0,,,+,,46392,,13,html-keyboard-response,,
12,condition1,,,,,,0.0-6.0-2.0,,,img2/jap/5.jpg,,46609,,14,image-keyboard-response,,
12,condition1,S,J,,,,0.0-6.0-3.0,s,1046,"Press S if the two images were the same, Press D if the two images were different.",,47656,,15,html-keyboard-response,,
12,condition1,,,,,,0.0-6.0-0.1,,,img2/jap/4.jpg,,47860,,16,image-keyboard-response,,
12,condition1,,,,,,0.0-6.0-1.1,,,+,,48172,,17,html-keyboard-response,,
12,condition1,,,,,,0.0-6.0-2.1,,,img2/jap/4.jpg,,48391,,18,image-keyboard-response,,
12,condition1,S,J,,,,0.0-6.0-3.1,d,776,"Press S if the two images were the same, Press D if the two images were different.",,49167,,19,html-keyboard-response,,
12,condition1,,,,,,0.0-6.0-0.2,,,img2/Mtools/11.jpg,,49376,,20,image-keyboard-response,,
12,condition1,,,,,,0.0-6.0-1.2,,,+,,49688,,21,html-keyboard-response,,
12,condition1,,,,,,0.0-6.0-2.2,,,img2/Mtools/3.jpg,,49892,,22,image-keyboard-response,,
12,condition1,D,O,,,,0.0-6.0-3.2,d,1331,"Press S if the two images were the same, Press D if the two images were different.",,51223,,23,html-keyboard-response,,
12,condition1,,,,,,0.0-6.0-0.3,,,img2/Mjap/3.jpg,,51430,,24,image-keyboard-response,,
12,condition1,,,,,,0.0-6.0-1.3,,,+,,51732,,25,html-keyboard-response,,
12,condition1,,,,,,0.0-6.0-2.3,,,img2/Mjap/4.jpg,,51942,,26,image-keyboard-response,,
12,condition1,D,J,,,,0.0-6.0-3.3,s,1197,"Press S if the two images were the same, Press D if the two images were different.",,53143,,27,html-keyboard-response,,
12,condition1,,,,,,0.0-6.0-0.4,,,img2/false/13.jpg,,53356,,28,image-keyboard-response,,
12,condition1,,,,,,0.0-6.0-1.4,,,+,,53671,,29,html-keyboard-response,,
12,condition1,,,,,,0.0-6.0-2.4,,,img2/false/1.jpg,,53890,,30,image-keyboard-response,,
12,condition1,D,M,,,,0.0-6.0-3.4,d,830,"Press S if the two images were the same, Press D if the two images were different.",,54720,,31,html-keyboard-response,,
12,condition1,,,,,,0.0-6.0-0.5,,,img2/jap/8.jpg,,54931,,32,image-keyboard-response,,
12,condition1,,,,,,0.0-6.0-1.5,,,+,,55243,,33,html-keyboard-response,,
12,condition1,,,,,,0.0-6.0-2.5,,,img2/jap/8.jpg,,55461,,34,image-keyboard-response,,
12,condition1,S,J,,,,0.0-6.0-3.5,s,706,"Press S if the two images were the same, Press D if the two images were different.",,56167,,35,html-keyboard-response,,
12,condition1,,,,,,0.0-6.0-0.6,,,img2/Mfrench/1.jpg,,56381,,36,image-keyboard-response,,
12,condition1,,,,,,0.0-6.0-1.6,,,+,,56693,,37,html-keyboard-response,,
12,condition1,,,,,,0.0-6.0-2.6,,,img2/Mfrench/4.jpg,,56910,,38,image-keyboard-response,,
12,condition1,D,R,,,,0.0-6.0-3.6,d,953,"Press S if the two images were the same, Press D if the two images were different.",,57863,,39,html-keyboard-response,,
12,condition1,,,,,,0.0-6.0-0.7,,,img2/jap/2.jpg,,58080,,40,image-keyboard-response,,
12,condition1,,,,,,0.0-6.0-1.7,,,+,,58391,,41,html-keyboard-response,,
12,condition1,,,,,,0.0-6.0-2.7,,,img2/Mjap/2.jpg,,58610,,42,image-keyboard-response,,
12,condition1,S,J,,,,0.0-6.0-3.7,d,1325,"Press S if the two images were the same, Press D if the two images were different.",,59936,,43,html-keyboard-response,,
12,condition1,,,,,,0.0-6.0-0.8,,,img2/tools/13.jpg,,60153,,44,image-keyboard-response,,
12,condition1,,,,,,0.0-6.0-1.8,,,+,,60464,,45,html-keyboard-response,,
12,condition1,,,,,,0.0-6.0-2.8,,,img2/tools/1.jpg,,60681,,46,image-keyboard-response,,
12,condition1,D,O,,,,0.0-6.0-3.8,s,1238,"Press S if the two images were the same, Press D if the two images were different.",,61919,,47,html-keyboard-response,,
12,condition1,,,,,,0.0-6.0-0.9,,,img2/jap/8.jpg,,62126,,48,image-keyboard-response,,
12,condition1,,,,,,0.0-6.0-1.9,,,+,,62435,,49,html-keyboard-response,,
12,condition1,,,,,,0.0-6.0-2.9,,,img2/jap/5.jpg,,62653,,50,image-keyboard-response,,
12,condition1,D,J,,,,0.0-6.0-3.9,d,1818,"Press S if the two images were the same, Press D if the two images were different.",,64471,,51,html-keyboard-response,,
12,condition1,,,,,,0.0-6.0-0.10,,,img2/tools/9.jpg,,64698,,52,image-keyboard-response,,
12,condition1,,,,,,0.0-6.0-1.10,,,+,,65009,,53,html-keyboard-response,,
12,condition1,,,,,,0.0-6.0-2.10,,,img2/tools/4.jpg,,65213,,54,image-keyboard-response,,
12,condition1,D,O,,,,0.0-6.0-3.10,d,1027,"Press S if the two images were the same, Press D if the two images were different.",,66240,,55,html-keyboard-response,,
12,condition1,,,,,,0.0-6.0-0.11,,,img2/faces/5.jpg,,66445,,56,image-keyboard-response,,
12,condition1,,,,,,0.0-6.0-1.11,,,+,,66756,,57,html-keyboard-response,,
12,condition1,,,,,,0.0-6.0-2.11,,,img2/Mfaces/5.jpg,,66973,,58,image-keyboard-response,,
12,condition1,S,H,,,,0.0-6.0-3.11,s,714,"Press S if the two images were the same, Press D if the two images were different.",,67688,,59,html-keyboard-response,,
12,condition1,,,,,,0.0-6.0-0.12,,,img2/Mfaces/6.jpg,,67895,,60,image-keyboard-response,,
12,condition1,,,,,,0.0-6.0-1.12,,,+,,68207,,61,html-keyboard-response,,
12,condition1,,,,,,0.0-6.0-2.12,,,img2/Mfaces/5.jpg,,68423,,62,image-keyboard-response,,
12,condition1,D,H,,,,0.0-6.0-3.12,d,537,"Press S if the two images were the same, Press D if the two images were different.",,68960,,63,html-keyboard-response,,
12,condition1,,,,,,0.0-6.0-0.13,,,img2/tools/8.jpg,,69170,,64,image-keyboard-response,,
12,condition1,,,,,,0.0-6.0-1.13,,,+,,69481,,65,html-keyboard-response,,
12,condition1,,,,,,0.0-6.0-2.13,,,img2/tools/5.jpg,,69698,,66,image-keyboard-response,,
12,condition1,D,O,,,,0.0-6.0-3.13,d,621,"Press S if the two images were the same, Press D if the two images were different.",,70319,,67,html-keyboard-response,,
12,condition1,,,,,,0.0-6.0-0.14,,,img2/Mjap/11.jpg,,70523,,68,image-keyboard-response,,
12,condition1,,,,,,0.0-6.0-1.14,,,+,,70834,,69,html-keyboard-response,,
12,condition1,,,,,,0.0-6.0-2.14,,,img2/Mjap/3.jpg,,71051,,70,image-keyboard-response,,
12,condition1,D,J,,,,0.0-6.0-3.14,d,620,"Press S if the two images were the same, Press D if the two images were different.",,71671,,71,html-keyboard-response,,
12,condition1,,,,,,0.0-6.0-0.15,,,img2/jap/9.jpg,,71876,,72,image-keyboard-response,,
12,condition1,,,,,,0.0-6.0-1.15,,,+,,72187,,73,html-keyboard-response,,
12,condition1,,,,,,0.0-6.0-2.15,,,img2/jap/9.jpg,,72405,,74,image-keyboard-response,,
12,condition1,S,J,,,,0.0-6.0-3.15,s,714,"Press S if the two images were the same, Press D if the two images were different.",,73119,,75,html-keyboard-response,,
12,condition1,,,,,,0.0-6.0-0.16,,,img2/tools/14.jpg,,73338,,76,image-keyboard-response,,
12,condition1,,,,,,0.0-6.0-1.16,,,+,,73649,,77,html-keyboard-response,,
12,condition1,,,,,,0.0-6.0-2.16,,,img2/tools/12.jpg,,73851,,78,image-keyboard-response,,
12,condition1,D,O,,,,0.0-6.0-3.16,d,509,"Press S if the two images were the same, Press D if the two images were different.",,74360,,79,html-keyboard-response,,
12,condition1,,,,,,0.0-6.0-0.17,,,img2/faces/2.jpg,,74568,,80,image-keyboard-response,,
12,condition1,,,,,,0.0-6.0-1.17,,,+,,74877,,81,html-keyboard-response,,
12,condition1,,,,,,0.0-6.0-2.17,,,img2/Mfaces/2.jpg,,75097,,82,image-keyboard-response,,
12,condition1,S,H,,,,0.0-6.0-3.17,d,1007,"Press S if the two images were the same, Press D if the two images were different.",,76104,,83,html-keyboard-response,,
12,condition1,,,,,,0.0-6.0-0.18,,,img2/Mjap/2.jpg,,76312,,84,image-keyboard-response,,
12,condition1,,,,,,0.0-6.0-1.18,,,+,,76621,,85,html-keyboard-response,,
12,condition1,,,,,,0.0-6.0-2.18,,,img2/Mjap/11.jpg,,76841,,86,image-keyboard-response,,
12,condition1,D,J,,,,0.0-6.0-3.18,d,815,"Press S if the two images were the same, Press D if the two images were different.",,77656,,87,html-keyboard-response,,
12,condition1,,,,,,0.0-6.0-0.19,,,img2/jap/7.jpg,,77879,,88,image-keyboard-response,,
12,condition1,,,,,,0.0-6.0-1.19,,,+,,78189,,89,html-keyboard-response,,
12,condition1,,,,,,0.0-6.0-2.19,,,img2/jap/10.jpg,,78407,,90,image-keyboard-response,,
12,condition1,D,J,,,,0.0-6.0-3.19,d,792,"Press S if the two images were the same, Press D if the two images were different.",,79199,,91,html-keyboard-response,,
12,condition1,,,,,,0.0-6.0-0.20,,,img2/tools/7.jpg,,79408,,92,image-keyboard-response,,
12,condition1,,,,,,0.0-6.0-1.20,,,+,,79720,,93,html-keyboard-response,,
12,condition1,,,,,,0.0-6.0-2.20,,,img2/tools/10.jpg,,79925,,94,image-keyboard-response,,
12,condition1,D,O,,,,0.0-6.0-3.20,d,578,"Press S if the two images were the same, Press D if the two images were different.",,80503,,95,html-keyboard-response,,
12,condition1,,,,,,0.0-6.0-0.21,,,img2/false/13.jpg,,80722,,96,image-keyboard-response,,
12,condition1,,,,,,0.0-6.0-1.21,,,+,,81034,,97,html-keyboard-response,,
12,condition1,,,,,,0.0-6.0-2.21,,,img2/Mfalse/13.jpg,,81252,,98,image-keyboard-response,,
12,condition1,S,M,,,,0.0-6.0-3.21,d,339,"Press S if the two images were the same, Press D if the two images were different.",,81592,,99,html-keyboard-response,,
12,condition1,,,,,,0.0-6.0-0.22,,,img2/Mfalse/4.jpg,,81799,,100,image-keyboard-response,,
12,condition1,,,,,,0.0-6.0-1.22,,,+,,82111,,101,html-keyboard-response,,
12,condition1,,,,,,0.0-6.0-2.22,,,img2/Mfalse/12.jpg,,82330,,102,image-keyboard-response,,
12,condition1,D,M,,,,0.0-6.0-3.22,d,429,"Press S if the two images were the same, Press D if the two images were different.",,82759,,103,html-keyboard-response,,
12,condition1,,,,,,0.0-6.0-0.23,,,img2/jap/12.jpg,,82967,,104,image-keyboard-response,,
12,condition1,,,,,,0.0-6.0-1.23,,,+,,83278,,105,html-keyboard-response,,
12,condition1,,,,,,0.0-6.0-2.23,,,img2/jap/9.jpg,,83495,,106,image-keyboard-response,,
12,condition1,D,J,,,,0.0-6.0-3.23,d,536,"Press S if the two images were the same, Press D if the two images were different.",,84031,,107,html-keyboard-response,,
12,condition1,,,,,,0.0-6.0-0.24,,,img2/jap/12.jpg,,84246,,108,image-keyboard-response,,
12,condition1,,,,,,0.0-6.0-1.24,,,+,,84556,,109,html-keyboard-response,,
12,condition1,,,,,,0.0-6.0-2.24,,,img2/Mjap/12.jpg,,84775,,110,image-keyboard-response,,
12,condition1,S,J,,,,0.0-6.0-3.24,d,368,"Press S if the two images were the same, Press D if the two images were different.",,85143,,111,html-keyboard-response,,
12,condition1,,,,,,0.0-6.0-0.25,,,img2/faces/7.jpg,,85352,,112,image-keyboard-response,,
12,condition1,,,,,,0.0-6.0-1.25,,,+,,85664,,113,html-keyboard-response,,
12,condition1,,,,,,0.0-6.0-2.25,,,img2/Mfaces/7.jpg,,85868,,114,image-keyboard-response,,
12,condition1,S,H,,,,0.0-6.0-3.25,d,811,"Press S if the two images were the same, Press D if the two images were different.",,86679,,115,html-keyboard-response,,
12,condition1,,,,,,0.0-6.0-0.26,,,img2/french/10.jpg,,86895,,116,image-keyboard-response,,
12,condition1,,,,,,0.0-6.0-1.26,,,+,,87207,,117,html-keyboard-response,,
12,condition1,,,,,,0.0-6.0-2.26,,,img2/french/10.jpg,,87412,,118,image-keyboard-response,,
12,condition1,S,R,,,,0.0-6.0-3.26,s,620,"Press S if the two images were the same, Press D if the two images were different.",,88032,,119,html-keyboard-response,,
12,condition1,,,,,,0.0-6.0-0.27,,,img2/faces/7.jpg,,88239,,120,image-keyboard-response,,
12,condition1,,,,,,0.0-6.0-1.27,,,+,,88551,,121,html-keyboard-response,,
12,condition1,,,,,,0.0-6.0-2.27,,,img2/faces/7.jpg,,88769,,122,image-keyboard-response,,
12,condition1,S,H,,,,0.0-6.0-3.27,s,326,"Press S if the two images were the same, Press D if the two images were different.",,89095,,123,html-keyboard-response,,
12,condition1,,,,,,0.0-6.0-0.28,,,img2/faces/14.jpg,,89313,,124,image-keyboard-response,,
12,condition1,,,,,,0.0-6.0-1.28,,,+,,89627,,125,html-keyboard-response,,
12,condition1,,,,,,0.0-6.0-2.28,,,img2/faces/12.jpg,,89848,,126,image-keyboard-response,,
12,condition1,D,H,,,,0.0-6.0-3.28,d,352,"Press S if the two images were the same, Press D if the two images were different.",,90200,,127,html-keyboard-response,,
12,condition1,,,,,,0.0-6.0-0.29,,,img2/Mfaces/9.jpg,,90426,,128,image-keyboard-response,,
12,condition1,,,,,,0.0-6.0-1.29,,,+,,90737,,129,html-keyboard-response,,
12,condition1,,,,,,0.0-6.0-2.29,,,img2/Mfaces/4.jpg,,90954,,130,image-keyboard-response,,
12,condition1,D,H,,,,0.0-6.0-3.29,d,509,"Press S if the two images were the same, Press D if the two images were different.",,91463,,131,html-keyboard-response,,
12,condition1,,,,,,0.0-6.0-0.30,,,img2/jap/13.jpg,,91676,,132,image-keyboard-response,,
12,condition1,,,,,,0.0-6.0-1.30,,,+,,91989,,133,html-keyboard-response,,
12,condition1,,,,,,0.0-6.0-2.30,,,img2/jap/1.jpg,,92207,,134,image-keyboard-response,,
12,condition1,D,J,,,,0.0-6.0-3.30,d,472,"Press S if the two images were the same, Press D if the two images were different.",,92679,,135,html-keyboard-response,,
12,condition1,,,,,,0.0-6.0-0.31,,,img2/faces/13.jpg,,92893,,136,image-keyboard-response,,
12,condition1,,,,,,0.0-6.0-1.31,,,+,,93207,,137,html-keyboard-response,,
12,condition1,,,,,,0.0-6.0-2.31,,,img2/faces/1.jpg,,93426,,138,image-keyboard-response,,
12,condition1,D,H,,,,0.0-6.0-3.31,d,301,"Press S if the two images were the same, Press D if the two images were different.",,93727,,139,html-keyboard-response,,
12,condition1,,,,,,0.0-6.0-0.32,,,img2/faces/9.jpg,,93945,,140,image-keyboard-response,,
12,condition1,,,,,,0.0-6.0-1.32,,,+,,94258,,141,html-keyboard-response,,
12,condition1,,,,,,0.0-6.0-2.32,,,img2/faces/4.jpg,,94460,,142,image-keyboard-response,,
12,condition1,D,H,,,,0.0-6.0-3.32,d,275,"Press S if the two images were the same, Press D if the two images were different.",,94735,,143,html-keyboard-response,,
12,condition1,,,,,,0.0-6.0-0.33,,,img2/jap/11.jpg,,94946,,144,image-keyboard-response,,
12,condition1,,,,,,0.0-6.0-1.33,,,+,,95253,,145,html-keyboard-response,,
12,condition1,,,,,,0.0-6.0-2.33,,,img2/jap/3.jpg,,95475,,146,image-keyboard-response,,
12,condition1,D,J,,,,0.0-6.0-3.33,d,493,"Press S if the two images were the same, Press D if the two images were different.",,95968,,147,html-keyboard-response,,
12,condition1,,,,,,0.0-6.0-0.34,,,img2/tools/11.jpg,,96180,,148,image-keyboard-response,,
12,condition1,,,,,,0.0-6.0-1.34,,,+,,96490,,149,html-keyboard-response,,
12,condition1,,,,,,0.0-6.0-2.34,,,img2/Mtools/11.jpg,,96708,,150,image-keyboard-response,,
12,condition1,S,O,,,,0.0-6.0-3.34,s,883,"Press S if the two images were the same, Press D if the two images were different.",,97591,,151,html-keyboard-response,,
12,condition1,,,,,,0.0-6.0-0.35,,,img2/tools/3.jpg,,97798,,152,image-keyboard-response,,
12,condition1,,,,,,0.0-6.0-1.35,,,+,,98110,,153,html-keyboard-response,,
12,condition1,,,,,,0.0-6.0-2.35,,,img2/tools/4.jpg,,98329,,154,image-keyboard-response,,
12,condition1,D,O,,,,0.0-6.0-3.35,d,279,"Press S if the two images were the same, Press D if the two images were different.",,98608,,155,html-keyboard-response,,
12,condition1,,,,,,0.0-6.0-0.36,,,img2/Mjap/7.jpg,,98814,,156,image-keyboard-response,,
12,condition1,,,,,,0.0-6.0-1.36,,,+,,99124,,157,html-keyboard-response,,
12,condition1,,,,,,0.0-6.0-2.36,,,img2/Mjap/10.jpg,,99343,,158,image-keyboard-response,,
12,condition1,D,J,,,,0.0-6.0-3.36,d,1025,"Press S if the two images were the same, Press D if the two images were different.",,100368,,159,html-keyboard-response,,
12,condition1,,,,,,0.0-6.0-0.37,,,img2/faces/2.jpg,,100575,,160,image-keyboard-response,,
12,condition1,,,,,,0.0-6.0-1.37,,,+,,100884,,161,html-keyboard-response,,
12,condition1,,,,,,0.0-6.0-2.37,,,img2/faces/11.jpg,,101102,,162,image-keyboard-response,,
12,condition1,D,H,,,,0.0-6.0-3.37,d,285,"Press S if the two images were the same, Press D if the two images were different.",,101391,,163,html-keyboard-response,,
12,condition1,,,,,,0.0-6.0-0.38,,,img2/french/7.jpg,,101605,,164,image-keyboard-response,,
12,condition1,,,,,,0.0-6.0-1.38,,,+,,101916,,165,html-keyboard-response,,
12,condition1,,,,,,0.0-6.0-2.38,,,img2/french/10.jpg,,102133,,166,image-keyboard-response,,
12,condition1,D,R,,,,0.0-6.0-3.38,d,290,"Press S if the two images were the same, Press D if the two images were different.",,102423,,167,html-keyboard-response,,
12,condition1,,,,,,0.0-6.0-0.39,,,img2/tools/1.jpg,,102632,,168,image-keyboard-response,,
12,condition1,,,,,,0.0-6.0-1.39,,,+,,102943,,169,html-keyboard-response,,
12,condition1,,,,,,0.0-6.0-2.39,,,img2/tools/1.jpg,,103147,,170,image-keyboard-response,,
12,condition1,S,O,,,,0.0-6.0-3.39,s,388,"Press S if the two images were the same, Press D if the two images were different.",,103535,,171,html-keyboard-response,,
12,condition1,,,,,,0.0-6.0-0.40,,,img2/french/12.jpg,,103752,,172,image-keyboard-response,,
12,condition1,,,,,,0.0-6.0-1.40,,,+,,104064,,173,html-keyboard-response,,
12,condition1,,,,,,0.0-6.0-2.40,,,img2/Mfrench/12.jpg,,104283,,174,image-keyboard-response,,
12,condition1,S,R,,,,0.0-6.0-3.40,d,388,"Press S if the two images were the same, Press D if the two images were different.",,104671,,175,html-keyboard-response,,
12,condition1,,,,,,0.0-6.0-0.41,,,img2/faces/2.jpg,,104887,,176,image-keyboard-response,,
12,condition1,,,,,,0.0-6.0-1.41,,,+,,105209,,177,html-keyboard-response,,
12,condition1,,,,,,0.0-6.0-2.41,,,img2/faces/2.jpg,,105426,,178,image-keyboard-response,,
12,condition1,S,H,,,,0.0-6.0-3.41,s,293,"Press S if the two images were the same, Press D if the two images were different.",,105720,,179,html-keyboard-response,,
12,condition1,,,,,,0.0-6.0-0.42,,,img2/tools/10.jpg,,105925,,180,image-keyboard-response,,
12,condition1,,,,,,0.0-6.0-1.42,,,+,,106231,,181,html-keyboard-response,,
12,condition1,,,,,,0.0-6.0-2.42,,,img2/tools/14.jpg,,106449,,182,image-keyboard-response,,
12,condition1,D,O,,,,0.0-6.0-3.42,d,237,"Press S if the two images were the same, Press D if the two images were different.",,106687,,183,html-keyboard-response,,
12,condition1,,,,,,0.0-6.0-0.43,,,img2/french/3.jpg,,106903,,184,image-keyboard-response,,
12,condition1,,,,,,0.0-6.0-1.43,,,+,,107214,,185,html-keyboard-response,,
12,condition1,,,,,,0.0-6.0-2.43,,,img2/french/4.jpg,,107432,,186,image-keyboard-response,,
12,condition1,D,R,,,,0.0-6.0-3.43,d,775,"Press S if the two images were the same, Press D if the two images were different.",,108207,,187,html-keyboard-response,,
12,condition1,,,,,,0.0-6.0-0.44,,,img2/jap/14.jpg,,108427,,188,image-keyboard-response,,
12,condition1,,,,,,0.0-6.0-1.44,,,+,,108736,,189,html-keyboard-response,,
12,condition1,,,,,,0.0-6.0-2.44,,,img2/jap/14.jpg,,108939,,190,image-keyboard-response,,
12,condition1,S,J,,,,0.0-6.0-3.44,s,301,"Press S if the two images were the same, Press D if the two images were different.",,109240,,191,html-keyboard-response,,
12,condition1,,,,,,0.0-6.0-0.45,,,img2/tools/11.jpg,,109454,,192,image-keyboard-response,,
12,condition1,,,,,,0.0-6.0-1.45,,,+,,109767,,193,html-keyboard-response,,
12,condition1,,,,,,0.0-6.0-2.45,,,img2/tools/11.jpg,,109968,,194,image-keyboard-response,,
12,condition1,S,O,,,,0.0-6.0-3.45,s,614,"Press S if the two images were the same, Press D if the two images were different.",,110583,,195,html-keyboard-response,,
12,condition1,,,,,,0.0-6.0-0.46,,,img2/false/6.jpg,,110788,,196,image-keyboard-response,,
12,condition1,,,,,,0.0-6.0-1.46,,,+,,111100,,197,html-keyboard-response,,
12,condition1,,,,,,0.0-6.0-2.46,,,img2/false/5.jpg,,111316,,198,image-keyboard-response,,
12,condition1,D,M,,,,0.0-6.0-3.46,d,283,"Press S if the two images were the same, Press D if the two images were different.",,111599,,199,html-keyboard-response,,
12,condition1,,,,,,0.0-6.0-0.47,,,img2/Mjap/1.jpg,,111814,,200,image-keyboard-response,,
12,condition1,,,,,,0.0-6.0-1.47,,,+,,112128,,201,html-keyboard-response,,
12,condition1,,,,,,0.0-6.0-2.47,,,img2/Mjap/4.jpg,,112347,,202,image-keyboard-response,,
12,condition1,D,J,,,,0.0-6.0-3.47,d,700,"Press S if the two images were the same, Press D if the two images were different.",,113047,,203,html-keyboard-response,,
12,condition1,,,,,,0.0-6.0-0.48,,,img2/faces/1.jpg,,113266,,204,image-keyboard-response,,
12,condition1,,,,,,0.0-6.0-1.48,,,+,,113577,,205,html-keyboard-response,,
12,condition1,,,,,,0.0-6.0-2.48,,,img2/faces/4.jpg,,113781,,206,image-keyboard-response,,
12,condition1,D,H,,,,0.0-6.0-3.48,d,2266,"Press S if the two images were the same, Press D if the two images were different.",,116047,,207,html-keyboard-response,,
12,condition1,,,,,,0.0-6.0-0.49,,,img2/jap/13.jpg,,116257,,208,image-keyboard-response,,
12,condition1,,,,,,0.0-6.0-1.49,,,+,,116567,,209,html-keyboard-response,,
12,condition1,,,,,,0.0-6.0-2.49,,,img2/Mjap/13.jpg,,116785,,210,image-keyboard-response,,
12,condition1,S,J,,,,0.0-6.0-3.49,d,598,"Press S if the two images were the same, Press D if the two images were different.",,117383,,211,html-keyboard-response,,
12,condition1,,,,,,0.0-6.0-0.50,,,img2/false/3.jpg,,117610,,212,image-keyboard-response,,
12,condition1,,,,,,0.0-6.0-1.50,,,+,,117926,,213,html-keyboard-response,,
12,condition1,,,,,,0.0-6.0-2.50,,,img2/false/3.jpg,,118144,,214,image-keyboard-response,,
12,condition1,S,M,,,,0.0-6.0-3.50,s,327,"Press S if the two images were the same, Press D if the two images were different.",,118472,,215,html-keyboard-response,,
12,condition1,,,,,,0.0-6.0-0.51,,,img2/jap/10.jpg,,118676,,216,image-keyboard-response,,
12,condition1,,,,,,0.0-6.0-1.51,,,+,,118990,,217,html-keyboard-response,,
12,condition1,,,,,,0.0-6.0-2.51,,,img2/jap/14.jpg,,119206,,218,image-keyboard-response,,
12,condition1,D,J,,,,0.0-6.0-3.51,d,322,"Press S if the two images were the same, Press D if the two images were different.",,119528,,219,html-keyboard-response,,
12,condition1,,,,,,0.0-6.0-0.52,,,img2/false/4.jpg,,119737,,220,image-keyboard-response,,
12,condition1,,,,,,0.0-6.0-1.52,,,+,,120049,,221,html-keyboard-response,,
12,condition1,,,,,,0.0-6.0-2.52,,,img2/false/12.jpg,,120267,,222,image-keyboard-response,,
12,condition1,D,M,,,,0.0-6.0-3.52,d,436,"Press S if the two images were the same, Press D if the two images were different.",,120703,,223,html-keyboard-response,,
12,condition1,,,,,,0.0-6.0-0.53,,,img2/false/9.jpg,,120921,,224,image-keyboard-response,,
12,condition1,,,,,,0.0-6.0-1.53,,,+,,121232,,225,html-keyboard-response,,
12,condition1,,,,,,0.0-6.0-2.53,,,img2/false/4.jpg,,121450,,226,image-keyboard-response,,
12,condition1,D,M,,,,0.0-6.0-3.53,d,349,"Press S if the two images were the same, Press D if the two images were different.",,121799,,227,html-keyboard-response,,
12,condition1,,,,,,0.0-6.0-0.54,,,img2/faces/6.jpg,,122012,,228,image-keyboard-response,,
12,condition1,,,,,,0.0-6.0-1.54,,,+,,122326,,229,html-keyboard-response,,
12,condition1,,,,,,0.0-6.0-2.54,,,img2/faces/6.jpg,,122545,,230,image-keyboard-response,,
12,condition1,S,H,,,,0.0-6.0-3.54,s,295,"Press S if the two images were the same, Press D if the two images were different.",,122839,,231,html-keyboard-response,,
12,condition1,,,,,,0.0-6.0-0.55,,,img2/Mtools/7.jpg,,123044,,232,image-keyboard-response,,
12,condition1,,,,,,0.0-6.0-1.55,,,+,,123355,,233,html-keyboard-response,,
12,condition1,,,,,,0.0-6.0-2.55,,,img2/Mtools/10.jpg,,123574,,234,image-keyboard-response,,
12,condition1,D,O,,,,0.0-6.0-3.55,d,305,"Press S if the two images were the same, Press D if the two images were different.",,123879,,235,html-keyboard-response,,
12,condition1,,,,,,0.0-6.0-0.56,,,img2/french/6.jpg,,124087,,236,image-keyboard-response,,
12,condition1,,,,,,0.0-6.0-1.56,,,+,,124398,,237,html-keyboard-response,,
12,condition1,,,,,,0.0-6.0-2.56,,,img2/Mfrench/6.jpg,,124615,,238,image-keyboard-response,,
12,condition1,S,R,,,,0.0-6.0-3.56,d,425,"Press S if the two images were the same, Press D if the two images were different.",,125040,,239,html-keyboard-response,,
12,condition1,,,,,,0.0-6.0-0.57,,,img2/tools/11.jpg,,125254,,240,image-keyboard-response,,
12,condition1,,,,,,0.0-6.0-1.57,,,+,,125565,,241,html-keyboard-response,,
12,condition1,,,,,,0.0-6.0-2.57,,,img2/tools/3.jpg,,125782,,242,image-keyboard-response,,
12,condition1,D,O,,,,0.0-6.0-3.57,d,321,"Press S if the two images were the same, Press D if the two images were different.",,126103,,243,html-keyboard-response,,
12,condition1,,,,,,0.0-6.0-0.58,,,img2/Mfrench/14.jpg,,126313,,244,image-keyboard-response,,
12,condition1,,,,,,0.0-6.0-1.58,,,+,,126624,,245,html-keyboard-response,,
12,condition1,,,,,,0.0-6.0-2.58,,,img2/Mfrench/12.jpg,,126839,,246,image-keyboard-response,,
12,condition1,D,R,,,,0.0-6.0-3.58,d,448,"Press S if the two images were the same, Press D if the two images were different.",,127288,,247,html-keyboard-response,,
12,condition1,,,,,,0.0-6.0-0.59,,,img2/french/4.jpg,,127493,,248,image-keyboard-response,,
12,condition1,,,,,,0.0-6.0-1.59,,,+,,127805,,249,html-keyboard-response,,
12,condition1,,,,,,0.0-6.0-2.59,,,img2/Mfrench/4.jpg,,128022,,250,image-keyboard-response,,
12,condition1,S,R,,,,0.0-6.0-3.59,d,353,"Press S if the two images were the same, Press D if the two images were different.",,128376,,251,html-keyboard-response,,
12,condition1,,,,,,0.0-6.0-0.60,,,img2/tools/4.jpg,,128584,,252,image-keyboard-response,,
12,condition1,,,,,,0.0-6.0-1.60,,,+,,128898,,253,html-keyboard-response,,
12,condition1,,,,,,0.0-6.0-2.60,,,img2/Mtools/4.jpg,,129100,,254,image-keyboard-response,,
12,condition1,S,O,,,,0.0-6.0-3.60,d,444,"Press S if the two images were the same, Press D if the two images were different.",,129544,,255,html-keyboard-response,,
12,condition1,,,,,,0.0-6.0-0.61,,,img2/jap/5.jpg,,129754,,256,image-keyboard-response,,
12,condition1,,,,,,0.0-6.0-1.61,,,+,,130066,,257,html-keyboard-response,,
12,condition1,,,,,,0.0-6.0-2.61,,,img2/jap/6.jpg,,130270,,258,image-keyboard-response,,
12,condition1,D,J,,,,0.0-6.0-3.61,d,297,"Press S if the two images were the same, Press D if the two images were different.",,130567,,259,html-keyboard-response,,
12,condition1,,,,,,0.0-6.0-0.62,,,img2/Mfrench/9.jpg,,130783,,260,image-keyboard-response,,
12,condition1,,,,,,0.0-6.0-1.62,,,+,,131090,,261,html-keyboard-response,,
12,condition1,,,,,,0.0-6.0-2.62,,,img2/Mfrench/4.jpg,,131293,,262,image-keyboard-response,,
12,condition1,D,R,,,,0.0-6.0-3.62,d,227,"Press S if the two images were the same, Press D if the two images were different.",,131519,,263,html-keyboard-response,,
12,condition1,,,,,,0.0-6.0-0.63,,,img2/faces/1.jpg,,131726,,264,image-keyboard-response,,
12,condition1,,,,,,0.0-6.0-1.63,,,+,,132035,,265,html-keyboard-response,,
12,condition1,,,,,,0.0-6.0-2.63,,,img2/Mfaces/1.jpg,,132254,,266,image-keyboard-response,,
12,condition1,S,H,,,,0.0-6.0-3.63,d,170,"Press S if the two images were the same, Press D if the two images were different.",,132424,,267,html-keyboard-response,,
12,condition1,,,,,,0.0-6.0-0.64,,,img2/jap/8.jpg,,132629,,268,image-keyboard-response,,
12,condition1,,,,,,0.0-6.0-1.64,,,+,,132942,,269,html-keyboard-response,,
12,condition1,,,,,,0.0-6.0-2.64,,,img2/Mjap/8.jpg,,133159,,270,image-keyboard-response,,
12,condition1,S,J,,,,0.0-6.0-3.64,d,272,"Press S if the two images were the same, Press D if the two images were different.",,133432,,271,html-keyboard-response,,
12,condition1,,,,,,0.0-6.0-0.65,,,img2/faces/4.jpg,,133642,,272,image-keyboard-response,,
12,condition1,,,,,,0.0-6.0-1.65,,,+,,133955,,273,html-keyboard-response,,
12,condition1,,,,,,0.0-6.0-2.65,,,img2/faces/4.jpg,,134173,,274,image-keyboard-response,,
12,condition1,S,H,,,,0.0-6.0-3.65,s,410,"Press S if the two images were the same, Press D if the two images were different.",,134583,,275,html-keyboard-response,,
12,condition1,,,,,,0.0-6.0-0.66,,,img2/false/14.jpg,,134795,,276,image-keyboard-response,,
12,condition1,,,,,,0.0-6.0-1.66,,,+,,135108,,277,html-keyboard-response,,
12,condition1,,,,,,0.0-6.0-2.66,,,img2/Mfalse/14.jpg,,135324,,278,image-keyboard-response,,
12,condition1,S,M,,,,0.0-6.0-3.66,d,100,"Press S if the two images were the same, Press D if the two images were different.",,135424,,279,html-keyboard-response,,
12,condition1,,,,,,0.0-6.0-0.67,,,img2/false/8.jpg,,135635,,280,image-keyboard-response,,
12,condition1,,,,,,0.0-6.0-1.67,,,+,,135947,,281,html-keyboard-response,,
12,condition1,,,,,,0.0-6.0-2.67,,,img2/Mfalse/8.jpg,,136166,,282,image-keyboard-response,,
12,condition1,S,M,,,,0.0-6.0-3.67,d,369,"Press S if the two images were the same, Press D if the two images were different.",,136536,,283,html-keyboard-response,,
12,condition1,,,,,,0.0-6.0-0.68,,,img2/Mtools/2.jpg,,136753,,284,image-keyboard-response,,
12,condition1,,,,,,0.0-6.0-1.68,,,+,,137067,,285,html-keyboard-response,,
12,condition1,,,,,,0.0-6.0-2.68,,,img2/Mtools/11.jpg,,137285,,286,image-keyboard-response,,
12,condition1,D,O,,,,0.0-6.0-3.68,d,178,"Press S if the two images were the same, Press D if the two images were different.",,137463,,287,html-keyboard-response,,
12,condition1,,,,,,0.0-6.0-0.69,,,img2/french/6.jpg,,137674,,288,image-keyboard-response,,
12,condition1,,,,,,0.0-6.0-1.69,,,+,,137984,,289,html-keyboard-response,,
12,condition1,,,,,,0.0-6.0-2.69,,,img2/french/5.jpg,,138202,,290,image-keyboard-response,,
12,condition1,D,R,,,,0.0-6.0-3.69,d,421,"Press S if the two images were the same, Press D if the two images were different.",,138623,,291,html-keyboard-response,,
12,condition1,,,,,,0.0-6.0-0.70,,,img2/faces/5.jpg,,138841,,292,image-keyboard-response,,
12,condition1,,,,,,0.0-6.0-1.70,,,+,,139153,,293,html-keyboard-response,,
12,condition1,,,,,,0.0-6.0-2.70,,,img2/faces/5.jpg,,139357,,294,image-keyboard-response,,
12,condition1,S,H,,,,0.0-6.0-3.70,d,1627,"Press S if the two images were the same, Press D if the two images were different.",,140984,,295,html-keyboard-response,,
12,condition1,,,,,,0.0-6.0-0.71,,,img2/faces/8.jpg,,141208,,296,image-keyboard-response,,
12,condition1,,,,,,0.0-6.0-1.71,,,+,,141520,,297,html-keyboard-response,,
12,condition1,,,,,,0.0-6.0-2.71,,,img2/faces/5.jpg,,141738,,298,image-keyboard-response,,
12,condition1,D,H,,,,0.0-6.0-3.71,d,270,"Press S if the two images were the same, Press D if the two images were different.",,142008,,299,html-keyboard-response,,
12,condition1,,,,,,0.0-6.0-0.72,,,img2/false/2.jpg,,142221,,300,image-keyboard-response,,
12,condition1,,,,,,0.0-6.0-1.72,,,+,,142531,,301,html-keyboard-response,,
12,condition1,,,,,,0.0-6.0-2.72,,,img2/false/11.jpg,,142748,,302,image-keyboard-response,,
12,condition1,D,M,,,,0.0-6.0-3.72,d,235,"Press S if the two images were the same, Press D if the two images were different.",,142983,,303,html-keyboard-response,,
12,condition1,,,,,,0.0-6.0-0.73,,,img2/Mfaces/1.jpg,,143196,,304,image-keyboard-response,,
12,condition1,,,,,,0.0-6.0-1.73,,,+,,143508,,305,html-keyboard-response,,
12,condition1,,,,,,0.0-6.0-2.73,,,img2/Mfaces/4.jpg,,143726,,306,image-keyboard-response,,
12,condition1,D,H,,,,0.0-6.0-3.73,d,369,"Press S if the two images were the same, Press D if the two images were different.",,144095,,307,html-keyboard-response,,
12,condition1,,,,,,0.0-6.0-0.74,,,img2/tools/4.jpg,,144305,,308,image-keyboard-response,,
12,condition1,,,,,,0.0-6.0-1.74,,,+,,144616,,309,html-keyboard-response,,
12,condition1,,,,,,0.0-6.0-2.74,,,img2/tools/12.jpg,,144834,,310,image-keyboard-response,,
12,condition1,D,O,,,,0.0-6.0-3.74,d,230,"Press S if the two images were the same, Press D if the two images were different.",,145063,,311,html-keyboard-response,,
12,condition1,,,,,,0.0-6.0-0.75,,,img2/jap/11.jpg,,145283,,312,image-keyboard-response,,
12,condition1,,,,,,0.0-6.0-1.75,,,+,,145593,,313,html-keyboard-response,,
12,condition1,,,,,,0.0-6.0-2.75,,,img2/Mjap/11.jpg,,145798,,314,image-keyboard-response,,
12,condition1,S,J,,,,0.0-6.0-3.75,d,321,"Press S if the two images were the same, Press D if the two images were different.",,146119,,315,html-keyboard-response,,
12,condition1,,,,,,0.0-6.0-0.76,,,img2/Mfrench/4.jpg,,146344,,316,image-keyboard-response,,
12,condition1,,,,,,0.0-6.0-1.76,,,+,,146654,,317,html-keyboard-response,,
12,condition1,,,,,,0.0-6.0-2.76,,,img2/Mfrench/12.jpg,,146871,,318,image-keyboard-response,,
12,condition1,D,R,,,,0.0-6.0-3.76,d,168,"Press S if the two images were the same, Press D if the two images were different.",,147039,,319,html-keyboard-response,,
12,condition1,,,,,,0.0-6.0-0.77,,,img2/french/5.jpg,,147246,,320,image-keyboard-response,,
12,condition1,,,,,,0.0-6.0-1.77,,,+,,147560,,321,html-keyboard-response,,
12,condition1,,,,,,0.0-6.0-2.77,,,img2/Mfrench/5.jpg,,147776,,322,image-keyboard-response,,
12,condition1,S,R,,,,0.0-6.0-3.77,d,455,"Press S if the two images were the same, Press D if the two images were different.",,148231,,323,html-keyboard-response,,
12,condition1,,,,,,0.0-6.0-0.78,,,img2/Mfaces/8.jpg,,148445,,324,image-keyboard-response,,
12,condition1,,,,,,0.0-6.0-1.78,,,+,,148757,,325,html-keyboard-response,,
12,condition1,,,,,,0.0-6.0-2.78,,,img2/Mfaces/5.jpg,,148975,,326,image-keyboard-response,,
12,condition1,D,H,,,,0.0-6.0-3.78,d,144,"Press S if the two images were the same, Press D if the two images were different.",,149120,,327,html-keyboard-response,,
12,condition1,,,,,,0.0-6.0-0.79,,,img2/faces/12.jpg,,149335,,328,image-keyboard-response,,
12,condition1,,,,,,0.0-6.0-1.79,,,+,,149647,,329,html-keyboard-response,,
12,condition1,,,,,,0.0-6.0-2.79,,,img2/Mfaces/12.jpg,,149853,,330,image-keyboard-response,,
12,condition1,S,H,,,,0.0-6.0-3.79,s,747,"Press S if the two images were the same, Press D if the two images were different.",,150600,,331,html-keyboard-response,,
12,condition1,,,,,,0.0-6.0-0.80,,,img2/tools/3.jpg,,150806,,332,image-keyboard-response,,
12,condition1,,,,,,0.0-6.0-1.80,,,+,,151119,,333,html-keyboard-response,,
12,condition1,,,,,,0.0-6.0-2.80,,,img2/tools/3.jpg,,151336,,334,image-keyboard-response,,
12,condition1,S,O,,,,0.0-6.0-3.80,s,391,"Press S if the two images were the same, Press D if the two images were different.",,151728,,335,html-keyboard-response,,
12,condition1,,,,,,0.0-6.0-0.81,,,img2/Mtools/5.jpg,,151944,,336,image-keyboard-response,,
12,condition1,,,,,,0.0-6.0-1.81,,,+,,152255,,337,html-keyboard-response,,
12,condition1,,,,,,0.0-6.0-2.81,,,img2/Mtools/6.jpg,,152474,,338,image-keyboard-response,,
12,condition1,D,O,,,,0.0-6.0-3.81,d,157,"Press S if the two images were the same, Press D if the two images were different.",,152631,,339,html-keyboard-response,,
12,condition1,,,,,,0.0-6.0-0.82,,,img2/jap/3.jpg,,152846,,340,image-keyboard-response,,
12,condition1,,,,,,0.0-6.0-1.82,,,+,,153157,,341,html-keyboard-response,,
12,condition1,,,,,,0.0-6.0-2.82,,,img2/jap/4.jpg,,153373,,342,image-keyboard-response,,
12,condition1,D,J,,,,0.0-6.0-3.82,d,306,"Press S if the two images were the same, Press D if the two images were different.",,153679,,343,html-keyboard-response,,
12,condition1,,,,,,0.0-6.0-0.83,,,img2/tools/2.jpg,,153888,,344,image-keyboard-response,,
12,condition1,,,,,,0.0-6.0-1.83,,,+,,154202,,345,html-keyboard-response,,
12,condition1,,,,,,0.0-6.0-2.83,,,img2/Mtools/2.jpg,,154405,,346,image-keyboard-response,,
12,condition1,S,O,,,,0.0-6.0-3.83,d,315,"Press S if the two images were the same, Press D if the two images were different.",,154720,,347,html-keyboard-response,,
12,condition1,,,,,,0.0-6.0-0.84,,,img2/tools/14.jpg,,154933,,348,image-keyboard-response,,
12,condition1,,,,,,0.0-6.0-1.84,,,+,,155244,,349,html-keyboard-response,,
12,condition1,,,,,,0.0-6.0-2.84,,,img2/tools/14.jpg,,155462,,350,image-keyboard-response,,
12,condition1,S,O,,,,0.0-6.0-3.84,s,425,"Press S if the two images were the same, Press D if the two images were different.",,155887,,351,html-keyboard-response,,
12,condition1,,,,,,0.0-6.0-0.85,,,img2/false/9.jpg,,156101,,352,image-keyboard-response,,
12,condition1,,,,,,0.0-6.0-1.85,,,+,,156413,,353,html-keyboard-response,,
12,condition1,,,,,,0.0-6.0-2.85,,,img2/false/9.jpg,,156630,,354,image-keyboard-response,,
12,condition1,S,M,,,,0.0-6.0-3.85,s,585,"Press S if the two images were the same, Press D if the two images were different.",,157216,,355,html-keyboard-response,,
12,condition1,,,,,,0.0-6.0-0.86,,,img2/false/12.jpg,,157422,,356,image-keyboard-response,,
12,condition1,,,,,,0.0-6.0-1.86,,,+,,157734,,357,html-keyboard-response,,
12,condition1,,,,,,0.0-6.0-2.86,,,img2/Mfalse/12.jpg,,157951,,358,image-keyboard-response,,
12,condition1,S,M,,,,0.0-6.0-3.86,d,240,"Press S if the two images were the same, Press D if the two images were different.",,158191,,359,html-keyboard-response,,
12,condition1,,,,,,0.0-6.0-0.87,,,img2/french/14.jpg,,158402,,360,image-keyboard-response,,
12,condition1,,,,,,0.0-6.0-1.87,,,+,,158713,,361,html-keyboard-response,,
12,condition1,,,,,,0.0-6.0-2.87,,,img2/french/12.jpg,,158918,,362,image-keyboard-response,,
12,condition1,D,R,,,,0.0-6.0-3.87,d,761,"Press S if the two images were the same, Press D if the two images were different.",,159679,,363,html-keyboard-response,,
12,condition1,,,,,,0.0-6.0-0.88,,,img2/false/4.jpg,,159903,,364,image-keyboard-response,,
12,condition1,,,,,,0.0-6.0-1.88,,,+,,160214,,365,html-keyboard-response,,
12,condition1,,,,,,0.0-6.0-2.88,,,img2/false/4.jpg,,160429,,366,image-keyboard-response,,
12,condition1,S,M,,,,0.0-6.0-3.88,s,339,"Press S if the two images were the same, Press D if the two images were different.",,160768,,367,html-keyboard-response,,
12,condition1,,,,,,0.0-6.0-0.89,,,img2/french/8.jpg,,160975,,368,image-keyboard-response,,
12,condition1,,,,,,0.0-6.0-1.89,,,+,,161286,,369,html-keyboard-response,,
12,condition1,,,,,,0.0-6.0-2.89,,,img2/french/5.jpg,,161505,,370,image-keyboard-response,,
12,condition1,D,R,,,,0.0-6.0-3.89,d,247,"Press S if the two images were the same, Press D if the two images were different.",,161752,,371,html-keyboard-response,,
12,condition1,,,,,,0.0-6.0-0.90,,,img2/Mfaces/14.jpg,,161970,,372,image-keyboard-response,,
12,condition1,,,,,,0.0-6.0-1.90,,,+,,162282,,373,html-keyboard-response,,
12,condition1,,,,,,0.0-6.0-2.90,,,img2/Mfaces/12.jpg,,162501,,374,image-keyboard-response,,
12,condition1,D,H,,,,0.0-6.0-3.90,d,530,"Press S if the two images were the same, Press D if the two images were different.",,163032,,375,html-keyboard-response,,
12,condition1,,,,,,0.0-6.0-0.91,,,img2/french/11.jpg,,163236,,376,image-keyboard-response,,
12,condition1,,,,,,0.0-6.0-1.91,,,+,,163546,,377,html-keyboard-response,,
12,condition1,,,,,,0.0-6.0-2.91,,,img2/french/3.jpg,,163751,,378,image-keyboard-response,,
12,condition1,D,R,,,,0.0-6.0-3.91,d,416,"Press S if the two images were the same, Press D if the two images were different.",,164167,,379,html-keyboard-response,,
12,condition1,,,,,,0.0-6.0-0.92,,,img2/french/8.jpg,,164374,,380,image-keyboard-response,,
12,condition1,,,,,,0.0-6.0-1.92,,,+,,164686,,381,html-keyboard-response,,
12,condition1,,,,,,0.0-6.0-2.92,,,img2/Mfrench/8.jpg,,164904,,382,image-keyboard-response,,
12,condition1,S,R,,,,0.0-6.0-3.92,d,351,"Press S if the two images were the same, Press D if the two images were different.",,165255,,383,html-keyboard-response,,
12,condition1,,,,,,0.0-6.0-0.93,,,img2/Mjap/12.jpg,,165462,,384,image-keyboard-response,,
12,condition1,,,,,,0.0-6.0-1.93,,,+,,165773,,385,html-keyboard-response,,
12,condition1,,,,,,0.0-6.0-2.93,,,img2/Mjap/9.jpg,,165989,,386,image-keyboard-response,,
12,condition1,D,J,,,,0.0-6.0-3.93,d,426,"Press S if the two images were the same, Press D if the two images were different.",,166415,,387,html-keyboard-response,,
12,condition1,,,,,,0.0-6.0-0.94,,,img2/french/2.jpg,,166641,,388,image-keyboard-response,,
12,condition1,,,,,,0.0-6.0-1.94,,,+,,166951,,389,html-keyboard-response,,
12,condition1,,,,,,0.0-6.0-2.94,,,img2/french/2.jpg,,167170,,390,image-keyboard-response,,
12,condition1,S,R,,,,0.0-6.0-3.94,s,405,"Press S if the two images were the same, Press D if the two images were different.",,167575,,391,html-keyboard-response,,
12,condition1,,,,,,0.0-6.0-0.95,,,img2/Mfalse/12.jpg,,167779,,392,image-keyboard-response,,
12,condition1,,,,,,0.0-6.0-1.95,,,+,,168091,,393,html-keyboard-response,,
12,condition1,,,,,,0.0-6.0-2.95,,,img2/Mfalse/9.jpg,,168308,,394,image-keyboard-response,,
12,condition1,D,M,,,,0.0-6.0-3.95,d,307,"Press S if the two images were the same, Press D if the two images were different.",,168616,,395,html-keyboard-response,,
12,condition1,,,,,,0.0-6.0-0.96,,,img2/tools/5.jpg,,168822,,396,image-keyboard-response,,
12,condition1,,,,,,0.0-6.0-1.96,,,+,,169132,,397,html-keyboard-response,,
12,condition1,,,,,,0.0-6.0-2.96,,,img2/Mtools/5.jpg,,169353,,398,image-keyboard-response,,
12,condition1,S,O,,,,0.0-6.0-3.96,d,526,"Press S if the two images were the same, Press D if the two images were different.",,169879,,399,html-keyboard-response,,
12,condition1,,,,,,0.0-6.0-0.97,,,img2/jap/1.jpg,,170090,,400,image-keyboard-response,,
12,condition1,,,,,,0.0-6.0-1.97,,,+,,170401,,401,html-keyboard-response,,
12,condition1,,,,,,0.0-6.0-2.97,,,img2/jap/1.jpg,,170618,,402,image-keyboard-response,,
12,condition1,S,J,,,,0.0-6.0-3.97,s,357,"Press S if the two images were the same, Press D if the two images were different.",,170975,,403,html-keyboard-response,,
12,condition1,,,,,,0.0-6.0-0.98,,,img2/false/1.jpg,,171179,,404,image-keyboard-response,,
12,condition1,,,,,,0.0-6.0-1.98,,,+,,171491,,405,html-keyboard-response,,
12,condition1,,,,,,0.0-6.0-2.98,,,img2/false/4.jpg,,171708,,406,image-keyboard-response,,
12,condition1,D,M,,,,0.0-6.0-3.98,d,179,"Press S if the two images were the same, Press D if the two images were different.",,171888,,407,html-keyboard-response,,
12,condition1,,,,,,0.0-6.0-0.99,,,img2/jap/3.jpg,,172098,,408,image-keyboard-response,,
12,condition1,,,,,,0.0-6.0-1.99,,,+,,172408,,409,html-keyboard-response,,
12,condition1,,,,,,0.0-6.0-2.99,,,img2/Mjap/3.jpg,,172626,,410,image-keyboard-response,,
12,condition1,S,J,,,,0.0-6.0-3.99,d,525,"Press S if the two images were the same, Press D if the two images were different.",,173151,,411,html-keyboard-response,,
12,condition1,,,,,,0.0-6.0-0.100,,,img2/Mfrench/6.jpg,,173359,,412,image-keyboard-response,,
12,condition1,,,,,,0.0-6.0-1.100,,,+,,173670,,413,html-keyboard-response,,
12,condition1,,,,,,0.0-6.0-2.100,,,img2/Mfrench/5.jpg,,173887,,414,image-keyboard-response,,
12,condition1,D,R,,,,0.0-6.0-3.100,d,280,"Press S if the two images were the same, Press D if the two images were different.",,174167,,415,html-keyboard-response,,
12,condition1,,,,,,0.0-6.0-0.101,,,img2/faces/11.jpg,,174382,,416,image-keyboard-response,,
12,condition1,,,,,,0.0-6.0-1.101,,,+,,174693,,417,html-keyboard-response,,
12,condition1,,,,,,0.0-6.0-2.101,,,img2/faces/3.jpg,,174913,,418,image-keyboard-response,,
12,condition1,D,H,,,,0.0-6.0-3.101,d,326,"Press S if the two images were the same, Press D if the two images were different.",,175240,,419,html-keyboard-response,,
12,condition1,,,,,,0.0-6.0-0.102,,,img2/false/2.jpg,,175457,,420,image-keyboard-response,,
12,condition1,,,,,,0.0-6.0-1.102,,,+,,175768,,421,html-keyboard-response,,
12,condition1,,,,,,0.0-6.0-2.102,,,img2/Mfalse/2.jpg,,175985,,422,image-keyboard-response,,
12,condition1,S,M,,,,0.0-6.0-3.102,d,358,"Press S if the two images were the same, Press D if the two images were different.",,176343,,423,html-keyboard-response,,
12,condition1,,,,,,0.0-6.0-0.103,,,img2/false/10.jpg,,176562,,424,image-keyboard-response,,
12,condition1,,,,,,0.0-6.0-1.103,,,+,,176872,,425,html-keyboard-response,,
12,condition1,,,,,,0.0-6.0-2.103,,,img2/false/10.jpg,,177076,,426,image-keyboard-response,,
12,condition1,S,M,,,,0.0-6.0-3.103,s,347,"Press S if the two images were the same, Press D if the two images were different.",,177424,,427,html-keyboard-response,,
12,condition1,,,,,,0.0-6.0-0.104,,,img2/faces/11.jpg,,177635,,428,image-keyboard-response,,
12,condition1,,,,,,0.0-6.0-1.104,,,+,,177945,,429,html-keyboard-response,,
12,condition1,,,,,,0.0-6.0-2.104,,,img2/faces/11.jpg,,178148,,430,image-keyboard-response,,
12,condition1,S,H,,,,0.0-6.0-3.104,d,99,"Press S if the two images were the same, Press D if the two images were different.",,178247,,431,html-keyboard-response,,
12,condition1,,,,,,0.0-6.0-0.105,,,img2/tools/7.jpg,,178460,,432,image-keyboard-response,,
12,condition1,,,,,,0.0-6.0-1.105,,,+,,178772,,433,html-keyboard-response,,
12,condition1,,,,,,0.0-6.0-2.105,,,img2/Mtools/7.jpg,,178991,,434,image-keyboard-response,,
12,condition1,S,O,,,,0.0-6.0-3.105,d,640,"Press S if the two images were the same, Press D if the two images were different.",,179632,,435,html-keyboard-response,,
12,condition1,,,,,,0.0-6.0-0.106,,,img2/false/2.jpg,,179845,,436,image-keyboard-response,,
12,condition1,,,,,,0.0-6.0-1.106,,,+,,180157,,437,html-keyboard-response,,
12,condition1,,,,,,0.0-6.0-2.106,,,img2/false/2.jpg,,180375,,438,image-keyboard-response,,
12,condition1,S,M,,,,0.0-6.0-3.106,s,416,"Press S if the two images were the same, Press D if the two images were different.",,180791,,439,html-keyboard-response,,
12,condition1,,,,,,0.0-6.0-0.107,,,img2/french/7.jpg,,180999,,440,image-keyboard-response,,
12,condition1,,,,,,0.0-6.0-1.107,,,+,,181310,,441,html-keyboard-response,,
12,condition1,,,,,,0.0-6.0-2.107,,,img2/Mfrench/7.jpg,,181526,,442,image-keyboard-response,,
12,condition1,S,R,,,,0.0-6.0-3.107,d,169,"Press S if the two images were the same, Press D if the two images were different.",,181695,,443,html-keyboard-response,,
12,condition1,,,,,,0.0-6.0-0.108,,,img2/jap/5.jpg,,181901,,444,image-keyboard-response,,
12,condition1,,,,,,0.0-6.0-1.108,,,+,,182212,,445,html-keyboard-response,,
12,condition1,,,,,,0.0-6.0-2.108,,,img2/Mjap/5.jpg,,182431,,446,image-keyboard-response,,
12,condition1,S,J,,,,0.0-6.0-3.108,d,561,"Press S if the two images were the same, Press D if the two images were different.",,182992,,447,html-keyboard-response,,
12,condition1,,,,,,0.0-6.0-0.109,,,img2/jap/9.jpg,,183207,,448,image-keyboard-response,,
12,condition1,,,,,,0.0-6.0-1.109,,,+,,183518,,449,html-keyboard-response,,
12,condition1,,,,,,0.0-6.0-2.109,,,img2/Mjap/9.jpg,,183721,,450,image-keyboard-response,,
12,condition1,S,J,,,,0.0-6.0-3.109,d,382,"Press S if the two images were the same, Press D if the two images were different.",,184104,,451,html-keyboard-response,,
12,condition1,,,,,,0.0-6.0-0.110,,,img2/Mjap/8.jpg,,184314,,452,image-keyboard-response,,
12,condition1,,,,,,0.0-6.0-1.110,,,+,,184623,,453,html-keyboard-response,,
12,condition1,,,,,,0.0-6.0-2.110,,,img2/Mjap/5.jpg,,184839,,454,image-keyboard-response,,
12,condition1,D,J,,,,0.0-6.0-3.110,d,303,"Press S if the two images were the same, Press D if the two images were different.",,185143,,455,html-keyboard-response,,
12,condition1,,,,,,0.0-6.0-0.111,,,img2/tools/8.jpg,,185354,,456,image-keyboard-response,,
12,condition1,,,,,,0.0-6.0-1.111,,,+,,185664,,457,html-keyboard-response,,
12,condition1,,,,,,0.0-6.0-2.111,,,img2/Mtools/8.jpg,,185868,,458,image-keyboard-response,,
12,condition1,S,O,,,,0.0-6.0-3.111,d,187,"Press S if the two images were the same, Press D if the two images were different.",,186055,,459,html-keyboard-response,,
12,condition1,,,,,,0.0-6.0-0.112,,,img2/faces/6.jpg,,186260,,460,image-keyboard-response,,
12,condition1,,,,,,0.0-6.0-1.112,,,+,,186570,,461,html-keyboard-response,,
12,condition1,,,,,,0.0-6.0-2.112,,,img2/Mfaces/6.jpg,,186774,,462,image-keyboard-response,,
12,condition1,S,H,,,,0.0-6.0-3.112,d,401,"Press S if the two images were the same, Press D if the two images were different.",,187175,,463,html-keyboard-response,,
12,condition1,,,,,,0.0-6.0-0.113,,,img2/french/14.jpg,,187394,,464,image-keyboard-response,,
12,condition1,,,,,,0.0-6.0-1.113,,,+,,187705,,465,html-keyboard-response,,
12,condition1,,,,,,0.0-6.0-2.113,,,img2/Mfrench/14.jpg,,187909,,466,image-keyboard-response,,
12,condition1,S,R,,,,0.0-6.0-3.113,d,434,"Press S if the two images were the same, Press D if the two images were different.",,188343,,467,html-keyboard-response,,
12,condition1,,,,,,0.0-6.0-0.114,,,img2/tools/10.jpg,,188561,,468,image-keyboard-response,,
12,condition1,,,,,,0.0-6.0-1.114,,,+,,188870,,469,html-keyboard-response,,
12,condition1,,,,,,0.0-6.0-2.114,,,img2/tools/10.jpg,,189091,,470,image-keyboard-response,,
12,condition1,S,O,,,,0.0-6.0-3.114,d,500,"Press S if the two images were the same, Press D if the two images were different.",,189591,,471,html-keyboard-response,,
12,condition1,,,,,,0.0-6.0-0.115,,,img2/faces/12.jpg,,189808,,472,image-keyboard-response,,
12,condition1,,,,,,0.0-6.0-1.115,,,+,,190119,,473,html-keyboard-response,,
12,condition1,,,,,,0.0-6.0-2.115,,,img2/faces/9.jpg,,190337,,474,image-keyboard-response,,
12,condition1,D,H,,,,0.0-6.0-3.115,d,270,"Press S if the two images were the same, Press D if the two images were different.",,190607,,475,html-keyboard-response,,
12,condition1,,,,,,0.0-6.0-0.116,,,img2/Mfrench/10.jpg,,190818,,476,image-keyboard-response,,
12,condition1,,,,,,0.0-6.0-1.116,,,+,,191132,,477,html-keyboard-response,,
12,condition1,,,,,,0.0-6.0-2.116,,,img2/Mfrench/14.jpg,,191350,,478,image-keyboard-response,,
12,condition1,D,R,,,,0.0-6.0-3.116,d,329,"Press S if the two images were the same, Press D if the two images were different.",,191680,,479,html-keyboard-response,,
12,condition1,,,,,,0.0-6.0-0.117,,,img2/french/11.jpg,,191895,,480,image-keyboard-response,,
12,condition1,,,,,,0.0-6.0-1.117,,,+,,192207,,481,html-keyboard-response,,
12,condition1,,,,,,0.0-6.0-2.117,,,img2/Mfrench/11.jpg,,192426,,482,image-keyboard-response,,
12,condition1,S,R,,,,0.0-6.0-3.117,d,878,"Press S if the two images were the same, Press D if the two images were different.",,193304,,483,html-keyboard-response,,
12,condition1,,,,,,0.0-6.0-0.118,,,img2/tools/6.jpg,,193512,,484,image-keyboard-response,,
12,condition1,,,,,,0.0-6.0-1.118,,,+,,193824,,485,html-keyboard-response,,
12,condition1,,,,,,0.0-6.0-2.118,,,img2/tools/6.jpg,,194043,,486,image-keyboard-response,,
12,condition1,S,O,,,,0.0-6.0-3.118,s,276,"Press S if the two images were the same, Press D if the two images were different.",,194319,,487,html-keyboard-response,,
12,condition1,,,,,,0.0-6.0-0.119,,,img2/Mtools/1.jpg,,194525,,488,image-keyboard-response,,
12,condition1,,,,,,0.0-6.0-1.119,,,+,,194836,,489,html-keyboard-response,,
12,condition1,,,,,,0.0-6.0-2.119,,,img2/Mtools/4.jpg,,195054,,490,image-keyboard-response,,
12,condition1,D,O,,,,0.0-6.0-3.119,d,232,"Press S if the two images were the same, Press D if the two images were different.",,195287,,491,html-keyboard-response,,
12,condition1,,,,,,0.0-6.0-0.120,,,img2/false/8.jpg,,195492,,492,image-keyboard-response,,
12,condition1,,,,,,0.0-6.0-1.120,,,+,,195803,,493,html-keyboard-response,,
12,condition1,,,,,,0.0-6.0-2.120,,,img2/false/5.jpg,,196023,,494,image-keyboard-response,,
12,condition1,D,M,,,,0.0-6.0-3.120,d,520,"Press S if the two images were the same, Press D if the two images were different.",,196543,,495,html-keyboard-response,,
12,condition1,,,,,,0.0-6.0-0.121,,,img2/tools/3.jpg,,196753,,496,image-keyboard-response,,
12,condition1,,,,,,0.0-6.0-1.121,,,+,,197063,,497,html-keyboard-response,,
12,condition1,,,,,,0.0-6.0-2.121,,,img2/Mtools/3.jpg,,197282,,498,image-keyboard-response,,
12,condition1,S,O,,,,0.0-6.0-3.121,d,237,"Press S if the two images were the same, Press D if the two images were different.",,197519,,499,html-keyboard-response,,
12,condition1,,,,,,0.0-6.0-0.122,,,img2/tools/9.jpg,,197736,,500,image-keyboard-response,,
12,condition1,,,,,,0.0-6.0-1.122,,,+,,198048,,501,html-keyboard-response,,
12,condition1,,,,,,0.0-6.0-2.122,,,img2/tools/9.jpg,,198266,,502,image-keyboard-response,,
12,condition1,S,O,,,,0.0-6.0-3.122,d,374,"Press S if the two images were the same, Press D if the two images were different.",,198640,,503,html-keyboard-response,,
12,condition1,,,,,,0.0-6.0-0.123,,,img2/Mjap/9.jpg,,198858,,504,image-keyboard-response,,
12,condition1,,,,,,0.0-6.0-1.123,,,+,,199168,,505,html-keyboard-response,,
12,condition1,,,,,,0.0-6.0-2.123,,,img2/Mjap/4.jpg,,199371,,506,image-keyboard-response,,
12,condition1,D,J,,,,0.0-6.0-3.123,s,1547,"Press S if the two images were the same, Press D if the two images were different.",,200919,,507,html-keyboard-response,,
12,condition1,,,,,,0.0-6.0-0.124,,,img2/Mfalse/11.jpg,,201134,,508,image-keyboard-response,,
12,condition1,,,,,,0.0-6.0-1.124,,,+,,201446,,509,html-keyboard-response,,
12,condition1,,,,,,0.0-6.0-2.124,,,img2/Mfalse/3.jpg,,201662,,510,image-keyboard-response,,
12,condition1,D,M,,,,0.0-6.0-3.124,d,993,"Press S if the two images were the same, Press D if the two images were different.",,202655,,511,html-keyboard-response,,
12,condition1,,,,,,0.0-6.0-0.125,,,img2/false/11.jpg,,202863,,512,image-keyboard-response,,
12,condition1,,,,,,0.0-6.0-1.125,,,+,,203175,,513,html-keyboard-response,,
12,condition1,,,,,,0.0-6.0-2.125,,,img2/false/11.jpg,,203394,,514,image-keyboard-response,,
12,condition1,S,M,,,,0.0-6.0-3.125,s,374,"Press S if the two images were the same, Press D if the two images were different.",,203768,,515,html-keyboard-response,,
12,condition1,,,,,,0.0-6.0-0.126,,,img2/french/2.jpg,,203971,,516,image-keyboard-response,,
12,condition1,,,,,,0.0-6.0-1.126,,,+,,204281,,517,html-keyboard-response,,
12,condition1,,,,,,0.0-6.0-2.126,,,img2/french/11.jpg,,204483,,518,image-keyboard-response,,
12,condition1,D,R,,,,0.0-6.0-3.126,d,251,"Press S if the two images were the same, Press D if the two images were different.",,204735,,519,html-keyboard-response,,
12,condition1,,,,,,0.0-6.0-0.127,,,img2/faces/13.jpg,,204950,,520,image-keyboard-response,,
12,condition1,,,,,,0.0-6.0-1.127,,,+,,205256,,521,html-keyboard-response,,
12,condition1,,,,,,0.0-6.0-2.127,,,img2/Mfaces/13.jpg,,205460,,522,image-keyboard-response,,
12,condition1,S,H,,,,0.0-6.0-3.127,d,539,"Press S if the two images were the same, Press D if the two images were different.",,205999,,523,html-keyboard-response,,
12,condition1,,,,,,0.0-6.0-0.128,,,img2/false/6.jpg,,206209,,524,image-keyboard-response,,
12,condition1,,,,,,0.0-6.0-1.128,,,+,,206521,,525,html-keyboard-response,,
12,condition1,,,,,,0.0-6.0-2.128,,,img2/false/6.jpg,,206741,,526,image-keyboard-response,,
12,condition1,S,M,,,,0.0-6.0-3.128,d,234,"Press S if the two images were the same, Press D if the two images were different.",,206975,,527,html-keyboard-response,,
12,condition1,,,,,,0.0-6.0-0.129,,,img2/Mtools/8.jpg,,207190,,528,image-keyboard-response,,
12,condition1,,,,,,0.0-6.0-1.129,,,+,,207501,,529,html-keyboard-response,,
12,condition1,,,,,,0.0-6.0-2.129,,,img2/Mtools/5.jpg,,207719,,530,image-keyboard-response,,
12,condition1,D,O,,,,0.0-6.0-3.129,d,496,"Press S if the two images were the same, Press D if the two images were different.",,208215,,531,html-keyboard-response,,
12,condition1,,,,,,0.0-6.0-0.130,,,img2/Mjap/5.jpg,,208421,,532,image-keyboard-response,,
12,condition1,,,,,,0.0-6.0-1.130,,,+,,208731,,533,html-keyboard-response,,
12,condition1,,,,,,0.0-6.0-2.130,,,img2/Mjap/6.jpg,,208949,,534,image-keyboard-response,,
12,condition1,D,J,,,,0.0-6.0-3.130,s,370,"Press S if the two images were the same, Press D if the two images were different.",,209319,,535,html-keyboard-response,,
12,condition1,,,,,,0.0-6.0-0.131,,,img2/jap/4.jpg,,209527,,536,image-keyboard-response,,
12,condition1,,,,,,0.0-6.0-1.131,,,+,,209838,,537,html-keyboard-response,,
12,condition1,,,,,,0.0-6.0-2.131,,,img2/Mjap/4.jpg,,210057,,538,image-keyboard-response,,
12,condition1,S,J,,,,0.0-6.0-3.131,d,94,"Press S if the two images were the same, Press D if the two images were different.",,210151,,539,html-keyboard-response,,
12,condition1,,,,,,0.0-6.0-0.132,,,img2/Mtools/10.jpg,,210371,,540,image-keyboard-response,,
12,condition1,,,,,,0.0-6.0-1.132,,,+,,210683,,541,html-keyboard-response,,
12,condition1,,,,,,0.0-6.0-2.132,,,img2/Mtools/14.jpg,,210902,,542,image-keyboard-response,,
12,condition1,D,O,,,,0.0-6.0-3.132,d,522,"Press S if the two images were the same, Press D if the two images were different.",,211423,,543,html-keyboard-response,,
12,condition1,,,,,,0.0-6.0-0.133,,,img2/Mtools/14.jpg,,211636,,544,image-keyboard-response,,
12,condition1,,,,,,0.0-6.0-1.133,,,+,,211946,,545,html-keyboard-response,,
12,condition1,,,,,,0.0-6.0-2.133,,,img2/Mtools/12.jpg,,212150,,546,image-keyboard-response,,
12,condition1,D,O,,,,0.0-6.0-3.133,d,402,"Press S if the two images were the same, Press D if the two images were different.",,212552,,547,html-keyboard-response,,
12,condition1,,,,,,0.0-6.0-0.134,,,img2/tools/5.jpg,,212755,,548,image-keyboard-response,,
12,condition1,,,,,,0.0-6.0-1.134,,,+,,213067,,549,html-keyboard-response,,
12,condition1,,,,,,0.0-6.0-2.134,,,img2/tools/5.jpg,,213286,,550,image-keyboard-response,,
12,condition1,S,O,,,,0.0-6.0-3.134,s,481,"Press S if the two images were the same, Press D if the two images were different.",,213767,,551,html-keyboard-response,,
12,condition1,,,,,,0.0-6.0-0.135,,,img2/false/5.jpg,,213973,,552,image-keyboard-response,,
12,condition1,,,,,,0.0-6.0-1.135,,,+,,214284,,553,html-keyboard-response,,
12,condition1,,,,,,0.0-6.0-2.135,,,img2/false/5.jpg,,214503,,554,image-keyboard-response,,
12,condition1,S,M,,,,0.0-6.0-3.135,s,513,"Press S if the two images were the same, Press D if the two images were different.",,215016,,555,html-keyboard-response,,
12,condition1,,,,,,0.0-6.0-0.136,,,img2/french/5.jpg,,215234,,556,image-keyboard-response,,
12,condition1,,,,,,0.0-6.0-1.136,,,+,,215544,,557,html-keyboard-response,,
12,condition1,,,,,,0.0-6.0-2.136,,,img2/french/5.jpg,,215762,,558,image-keyboard-response,,
12,condition1,S,R,,,,0.0-6.0-3.136,s,270,"Press S if the two images were the same, Press D if the two images were different.",,216032,,559,html-keyboard-response,,
12,condition1,,,,,,0.0-6.0-0.137,,,img2/false/9.jpg,,216243,,560,image-keyboard-response,,
12,condition1,,,,,,0.0-6.0-1.137,,,+,,216554,,561,html-keyboard-response,,
12,condition1,,,,,,0.0-6.0-2.137,,,img2/Mfalse/9.jpg,,216772,,562,image-keyboard-response,,
12,condition1,S,M,,,,0.0-6.0-3.137,d,211,"Press S if the two images were the same, Press D if the two images were different.",,216983,,563,html-keyboard-response,,
12,condition1,,,,,,0.0-6.0-0.138,,,img2/jap/3.jpg,,217195,,564,image-keyboard-response,,
12,condition1,,,,,,0.0-6.0-1.138,,,+,,217506,,565,html-keyboard-response,,
12,condition1,,,,,,0.0-6.0-2.138,,,img2/jap/3.jpg,,217708,,566,image-keyboard-response,,
12,condition1,S,J,,,,0.0-6.0-3.138,s,451,"Press S if the two images were the same, Press D if the two images were different.",,218159,,567,html-keyboard-response,,
12,condition1,,,,,,0.0-6.0-0.139,,,img2/false/12.jpg,,218378,,568,image-keyboard-response,,
12,condition1,,,,,,0.0-6.0-1.139,,,+,,218692,,569,html-keyboard-response,,
12,condition1,,,,,,0.0-6.0-2.139,,,img2/false/12.jpg,,218909,,570,image-keyboard-response,,
12,condition1,S,M,,,,0.0-6.0-3.139,s,346,"Press S if the two images were the same, Press D if the two images were different.",,219255,,571,html-keyboard-response,,
12,condition1,,,,,,0.0-6.0-0.140,,,img2/french/9.jpg,,219473,,572,image-keyboard-response,,
12,condition1,,,,,,0.0-6.0-1.140,,,+,,219785,,573,html-keyboard-response,,
12,condition1,,,,,,0.0-6.0-2.140,,,img2/Mfrench/9.jpg,,219987,,574,image-keyboard-response,,
12,condition1,S,R,,,,0.0-6.0-3.140,d,228,"Press S if the two images were the same, Press D if the two images were different.",,220215,,575,html-keyboard-response,,
12,condition1,,,,,,0.0-6.0-0.141,,,img2/french/4.jpg,,220423,,576,image-keyboard-response,,
12,condition1,,,,,,0.0-6.0-1.141,,,+,,220736,,577,html-keyboard-response,,
12,condition1,,,,,,0.0-6.0-2.141,,,img2/french/4.jpg,,220954,,578,image-keyboard-response,,
12,condition1,S,R,,,,0.0-6.0-3.141,s,502,"Press S if the two images were the same, Press D if the two images were different.",,221455,,579,html-keyboard-response,,
12,condition1,,,,,,0.0-6.0-0.142,,,img2/faces/14.jpg,,221668,,580,image-keyboard-response,,
12,condition1,,,,,,0.0-6.0-1.142,,,+,,221981,,581,html-keyboard-response,,
12,condition1,,,,,,0.0-6.0-2.142,,,img2/faces/14.jpg,,222200,,582,image-keyboard-response,,
12,condition1,S,H,,,,0.0-6.0-3.142,s,392,"Press S if the two images were the same, Press D if the two images were different.",,222591,,583,html-keyboard-response,,
12,condition1,,,,,,0.0-6.0-0.143,,,img2/jap/6.jpg,,222811,,584,image-keyboard-response,,
12,condition1,,,,,,0.0-6.0-1.143,,,+,,223123,,585,html-keyboard-response,,
12,condition1,,,,,,0.0-6.0-2.143,,,img2/Mjap/6.jpg,,223339,,586,image-keyboard-response,,
12,condition1,S,J,,,,0.0-6.0-3.143,d,196,"Press S if the two images were the same, Press D if the two images were different.",,223535,,587,html-keyboard-response,,
12,condition1,,,,,,0.0-6.0-0.144,,,img2/french/10.jpg,,223746,,588,image-keyboard-response,,
12,condition1,,,,,,0.0-6.0-1.144,,,+,,224060,,589,html-keyboard-response,,
12,condition1,,,,,,0.0-6.0-2.144,,,img2/Mfrench/10.jpg,,224276,,590,image-keyboard-response,,
12,condition1,S,R,,,,0.0-6.0-3.144,d,1068,"Press S if the two images were the same, Press D if the two images were different.",,225344,,591,html-keyboard-response,,
12,condition1,,,,,,0.0-6.0-0.145,,,img2/french/4.jpg,,225556,,592,image-keyboard-response,,
12,condition1,,,,,,0.0-6.0-1.145,,,+,,225866,,593,html-keyboard-response,,
12,condition1,,,,,,0.0-6.0-2.145,,,img2/french/12.jpg,,226082,,594,image-keyboard-response,,
12,condition1,D,R,,,,0.0-6.0-3.145,d,373,"Press S if the two images were the same, Press D if the two images were different.",,226455,,595,html-keyboard-response,,
12,condition1,,,,,,0.0-6.0-0.146,,,img2/jap/14.jpg,,226674,,596,image-keyboard-response,,
12,condition1,,,,,,0.0-6.0-1.146,,,+,,226984,,597,html-keyboard-response,,
12,condition1,,,,,,0.0-6.0-2.146,,,img2/jap/12.jpg,,227204,,598,image-keyboard-response,,
12,condition1,D,J,,,,0.0-6.0-3.146,d,395,"Press S if the two images were the same, Press D if the two images were different.",,227599,,599,html-keyboard-response,,
12,condition1,,,,,,0.0-6.0-0.147,,,img2/false/4.jpg,,227812,,600,image-keyboard-response,,
12,condition1,,,,,,0.0-6.0-1.147,,,+,,228121,,601,html-keyboard-response,,
12,condition1,,,,,,0.0-6.0-2.147,,,img2/Mfalse/4.jpg,,228325,,602,image-keyboard-response,,
12,condition1,S,M,,,,0.0-6.0-3.147,d,506,"Press S if the two images were the same, Press D if the two images were different.",,228832,,603,html-keyboard-response,,
12,condition1,,,,,,0.0-6.0-0.148,,,img2/false/10.jpg,,229043,,604,image-keyboard-response,,
12,condition1,,,,,,0.0-6.0-1.148,,,+,,229354,,605,html-keyboard-response,,
12,condition1,,,,,,0.0-6.0-2.148,,,img2/Mfalse/10.jpg,,229574,,606,image-keyboard-response,,
12,condition1,S,M,,,,0.0-6.0-3.148,d,553,"Press S if the two images were the same, Press D if the two images were different.",,230127,,607,html-keyboard-response,,
12,condition1,,,,,,0.0-6.0-0.149,,,img2/jap/2.jpg,,230339,,608,image-keyboard-response,,
12,condition1,,,,,,0.0-6.0-1.149,,,+,,230650,,609,html-keyboard-response,,
12,condition1,,,,,,0.0-6.0-2.149,,,img2/jap/2.jpg,,230853,,610,image-keyboard-response,,
12,condition1,S,J,,,,0.0-6.0-3.149,s,242,"Press S if the two images were the same, Press D if the two images were different.",,231096,,611,html-keyboard-response,,
12,condition1,,,,,,0.0-6.0-0.150,,,img2/Mtools/3.jpg,,231307,,612,image-keyboard-response,,
12,condition1,,,,,,0.0-6.0-1.150,,,+,,231621,,613,html-keyboard-response,,
12,condition1,,,,,,0.0-6.0-2.150,,,img2/Mtools/4.jpg,,231838,,614,image-keyboard-response,,
12,condition1,D,O,,,,0.0-6.0-3.150,d,193,"Press S if the two images were the same, Press D if the two images were different.",,232031,,615,html-keyboard-response,,
12,condition1,,,,,,0.0-6.0-0.151,,,img2/tools/13.jpg,,232246,,616,image-keyboard-response,,
12,condition1,,,,,,0.0-6.0-1.151,,,+,,232559,,617,html-keyboard-response,,
12,condition1,,,,,,0.0-6.0-2.151,,,img2/tools/13.jpg,,232779,,618,image-keyboard-response,,
12,condition1,S,O,,,,0.0-6.0-3.151,s,300,"Press S if the two images were the same, Press D if the two images were different.",,233079,,619,html-keyboard-response,,
12,condition1,,,,,,0.0-6.0-0.152,,,img2/tools/7.jpg,,233293,,620,image-keyboard-response,,
12,condition1,,,,,,0.0-6.0-1.152,,,+,,233604,,621,html-keyboard-response,,
12,condition1,,,,,,0.0-6.0-2.152,,,img2/tools/7.jpg,,233823,,622,image-keyboard-response,,
12,condition1,S,O,,,,0.0-6.0-3.152,s,448,"Press S if the two images were the same, Press D if the two images were different.",,234271,,623,html-keyboard-response,,
12,condition1,,,,,,0.0-6.0-0.153,,,img2/false/7.jpg,,234478,,624,image-keyboard-response,,
12,condition1,,,,,,0.0-6.0-1.153,,,+,,234791,,625,html-keyboard-response,,
12,condition1,,,,,,0.0-6.0-2.153,,,img2/false/7.jpg,,234996,,626,image-keyboard-response,,
12,condition1,S,M,,,,0.0-6.0-3.153,s,300,"Press S if the two images were the same, Press D if the two images were different.",,235296,,627,html-keyboard-response,,
12,condition1,,,,,,0.0-6.0-0.154,,,img2/french/6.jpg,,235513,,628,image-keyboard-response,,
12,condition1,,,,,,0.0-6.0-1.154,,,+,,235825,,629,html-keyboard-response,,
12,condition1,,,,,,0.0-6.0-2.154,,,img2/french/6.jpg,,236041,,630,image-keyboard-response,,
12,condition1,S,R,,,,0.0-6.0-3.154,s,231,"Press S if the two images were the same, Press D if the two images were different.",,236272,,631,html-keyboard-response,,
12,condition1,,,,,,0.0-6.0-0.155,,,img2/Mfrench/3.jpg,,236479,,632,image-keyboard-response,,
12,condition1,,,,,,0.0-6.0-1.155,,,+,,236789,,633,html-keyboard-response,,
12,condition1,,,,,,0.0-6.0-2.155,,,img2/Mfrench/4.jpg,,237007,,634,image-keyboard-response,,
12,condition1,D,R,,,,0.0-6.0-3.155,d,376,"Press S if the two images were the same, Press D if the two images were different.",,237383,,635,html-keyboard-response,,
12,condition1,,,,,,0.0-6.0-0.156,,,img2/Mfaces/4.jpg,,237598,,636,image-keyboard-response,,
12,condition1,,,,,,0.0-6.0-1.156,,,+,,237909,,637,html-keyboard-response,,
12,condition1,,,,,,0.0-6.0-2.156,,,img2/Mfaces/12.jpg,,238128,,638,image-keyboard-response,,
12,condition1,D,H,,,,0.0-6.0-3.156,d,535,"Press S if the two images were the same, Press D if the two images were different.",,238663,,639,html-keyboard-response,,
12,condition1,,,,,,0.0-6.0-0.157,,,img2/tools/5.jpg,,238876,,640,image-keyboard-response,,
12,condition1,,,,,,0.0-6.0-1.157,,,+,,239187,,641,html-keyboard-response,,
12,condition1,,,,,,0.0-6.0-2.157,,,img2/tools/6.jpg,,239405,,642,image-keyboard-response,,
12,condition1,D,O,,,,0.0-6.0-3.157,d,498,"Press S if the two images were the same, Press D if the two images were different.",,239903,,643,html-keyboard-response,,
12,condition1,,,,,,0.0-6.0-0.158,,,img2/french/1.jpg,,240122,,644,image-keyboard-response,,
12,condition1,,,,,,0.0-6.0-1.158,,,+,,240432,,645,html-keyboard-response,,
12,condition1,,,,,,0.0-6.0-2.158,,,img2/Mfrench/1.jpg,,240649,,646,image-keyboard-response,,
12,condition1,S,R,,,,0.0-6.0-3.158,d,382,"Press S if the two images were the same, Press D if the two images were different.",,241031,,647,html-keyboard-response,,
12,condition1,,,,,,0.0-6.0-0.159,,,img2/false/3.jpg,,241238,,648,image-keyboard-response,,
12,condition1,,,,,,0.0-6.0-1.159,,,+,,241551,,649,html-keyboard-response,,
12,condition1,,,,,,0.0-6.0-2.159,,,img2/Mfalse/3.jpg,,241770,,650,image-keyboard-response,,
12,condition1,S,M,,,,0.0-6.0-3.159,d,389,"Press S if the two images were the same, Press D if the two images were different.",,242160,,651,html-keyboard-response,,
12,condition1,,,,,,0.0-6.0-0.160,,,img2/Mtools/4.jpg,,242375,,652,image-keyboard-response,,
12,condition1,,,,,,0.0-6.0-1.160,,,+,,242687,,653,html-keyboard-response,,
12,condition1,,,,,,0.0-6.0-2.160,,,img2/Mtools/12.jpg,,242903,,654,image-keyboard-response,,
12,condition1,D,O,,,,0.0-6.0-3.160,d,489,"Press S if the two images were the same, Press D if the two images were different.",,243392,,655,html-keyboard-response,,
12,condition1,,,,,,0.0-6.0-0.161,,,img2/Mfrench/7.jpg,,243599,,656,image-keyboard-response,,
12,condition1,,,,,,0.0-6.0-1.161,,,+,,243910,,657,html-keyboard-response,,
12,condition1,,,,,,0.0-6.0-2.161,,,img2/Mfrench/10.jpg,,244126,,658,image-keyboard-response,,
12,condition1,D,R,,,,0.0-6.0-3.161,d,369,"Press S if the two images were the same, Press D if the two images were different.",,244495,,659,html-keyboard-response,,
12,condition1,,,,,,0.0-6.0-0.162,,,img2/Mfalse/13.jpg,,244703,,660,image-keyboard-response,,
12,condition1,,,,,,0.0-6.0-1.162,,,+,,245014,,661,html-keyboard-response,,
12,condition1,,,,,,0.0-6.0-2.162,,,img2/Mfalse/1.jpg,,245232,,662,image-keyboard-response,,
12,condition1,D,M,,,,0.0-6.0-3.162,d,391,"Press S if the two images were the same, Press D if the two images were different.",,245623,,663,html-keyboard-response,,
12,condition1,,,,,,0.0-6.0-0.163,,,img2/jap/6.jpg,,245840,,664,image-keyboard-response,,
12,condition1,,,,,,0.0-6.0-1.163,,,+,,246149,,665,html-keyboard-response,,
12,condition1,,,,,,0.0-6.0-2.163,,,img2/jap/6.jpg,,246364,,666,image-keyboard-response,,
12,condition1,S,J,,,,0.0-6.0-3.163,d,500,"Press S if the two images were the same, Press D if the two images were different.",,246864,,667,html-keyboard-response,,
12,condition1,,,,,,0.0-6.0-0.164,,,img2/false/12.jpg,,247078,,668,image-keyboard-response,,
12,condition1,,,,,,0.0-6.0-1.164,,,+,,247390,,669,html-keyboard-response,,
12,condition1,,,,,,0.0-6.0-2.164,,,img2/false/9.jpg,,247605,,670,image-keyboard-response,,
12,condition1,D,M,,,,0.0-6.0-3.164,d,396,"Press S if the two images were the same, Press D if the two images were different.",,248002,,671,html-keyboard-response,,
12,condition1,,,,,,0.0-6.0-0.165,,,img2/faces/12.jpg,,248211,,672,image-keyboard-response,,
12,condition1,,,,,,0.0-6.0-1.165,,,+,,248523,,673,html-keyboard-response,,
12,condition1,,,,,,0.0-6.0-2.165,,,img2/faces/12.jpg,,248739,,674,image-keyboard-response,,
12,condition1,S,H,,,,0.0-6.0-3.165,s,452,"Press S if the two images were the same, Press D if the two images were different.",,249192,,675,html-keyboard-response,,
12,condition1,,,,,,0.0-6.0-0.166,,,img2/Mfaces/12.jpg,,249409,,676,image-keyboard-response,,
12,condition1,,,,,,0.0-6.0-1.166,,,+,,249720,,677,html-keyboard-response,,
12,condition1,,,,,,0.0-6.0-2.166,,,img2/Mfaces/9.jpg,,249923,,678,image-keyboard-response,,
12,condition1,D,H,,,,0.0-6.0-3.166,d,211,"Press S if the two images were the same, Press D if the two images were different.",,250135,,679,html-keyboard-response,,
12,condition1,,,,,,0.0-6.0-0.167,,,img2/Mfrench/13.jpg,,250359,,680,image-keyboard-response,,
12,condition1,,,,,,0.0-6.0-1.167,,,+,,250670,,681,html-keyboard-response,,
12,condition1,,,,,,0.0-6.0-2.167,,,img2/Mfrench/1.jpg,,250887,,682,image-keyboard-response,,
12,condition1,D,R,,,,0.0-6.0-3.167,d,391,"Press S if the two images were the same, Press D if the two images were different.",,251279,,683,html-keyboard-response,,
12,condition1,,,,,,0.0-6.0-0.168,,,img2/false/10.jpg,,251496,,684,image-keyboard-response,,
12,condition1,,,,,,0.0-6.0-1.168,,,+,,251806,,685,html-keyboard-response,,
12,condition1,,,,,,0.0-6.0-2.168,,,img2/false/14.jpg,,252026,,686,image-keyboard-response,,
12,condition1,D,M,,,,0.0-6.0-3.168,d,253,"Press S if the two images were the same, Press D if the two images were different.",,252279,,687,html-keyboard-response,,
12,condition1,,,,,,0.0-6.0-0.169,,,img2/jap/12.jpg,,252492,,688,image-keyboard-response,,
12,condition1,,,,,,0.0-6.0-1.169,,,+,,252803,,689,html-keyboard-response,,
12,condition1,,,,,,0.0-6.0-2.169,,,img2/jap/12.jpg,,253022,,690,image-keyboard-response,,
12,condition1,S,J,,,,0.0-6.0-3.169,s,409,"Press S if the two images were the same, Press D if the two images were different.",,253432,,691,html-keyboard-response,,
12,condition1,,,,,,0.0-6.0-0.170,,,img2/Mtools/12.jpg,,253643,,692,image-keyboard-response,,
12,condition1,,,,,,0.0-6.0-1.170,,,+,,253956,,693,html-keyboard-response,,
12,condition1,,,,,,0.0-6.0-2.170,,,img2/Mtools/9.jpg,,254174,,694,image-keyboard-response,,
12,condition1,D,O,,,,0.0-6.0-3.170,d,177,"Press S if the two images were the same, Press D if the two images were different.",,254351,,695,html-keyboard-response,,
12,condition1,,,,,,0.0-6.0-0.171,,,img2/tools/12.jpg,,254565,,696,image-keyboard-response,,
12,condition1,,,,,,0.0-6.0-1.171,,,+,,254877,,697,html-keyboard-response,,
12,condition1,,,,,,0.0-6.0-2.171,,,img2/tools/12.jpg,,255097,,698,image-keyboard-response,,
12,condition1,S,O,,,,0.0-6.0-3.171,s,302,"Press S if the two images were the same, Press D if the two images were different.",,255399,,699,html-keyboard-response,,
12,condition1,,,,,,0.0-6.0-0.172,,,img2/french/10.jpg,,255613,,700,image-keyboard-response,,
12,condition1,,,,,,0.0-6.0-1.172,,,+,,255926,,701,html-keyboard-response,,
12,condition1,,,,,,0.0-6.0-2.172,,,img2/french/14.jpg,,256144,,702,image-keyboard-response,,
12,condition1,D,R,,,,0.0-6.0-3.172,d,319,"Press S if the two images were the same, Press D if the two images were different.",,256463,,703,html-keyboard-response,,
12,condition1,,,,,,0.0-6.0-0.173,,,img2/false/8.jpg,,256676,,704,image-keyboard-response,,
12,condition1,,,,,,0.0-6.0-1.173,,,+,,256985,,705,html-keyboard-response,,
12,condition1,,,,,,0.0-6.0-2.173,,,img2/false/8.jpg,,257203,,706,image-keyboard-response,,
12,condition1,S,M,,,,0.0-6.0-3.173,s,324,"Press S if the two images were the same, Press D if the two images were different.",,257528,,707,html-keyboard-response,,
12,condition1,,,,,,0.0-6.0-0.174,,,img2/jap/10.jpg,,257734,,708,image-keyboard-response,,
12,condition1,,,,,,0.0-6.0-1.174,,,+,,258044,,709,html-keyboard-response,,
12,condition1,,,,,,0.0-6.0-2.174,,,img2/Mjap/10.jpg,,258262,,710,image-keyboard-response,,
12,condition1,S,J,,,,0.0-6.0-3.174,d,337,"Press S if the two images were the same, Press D if the two images were different.",,258600,,711,html-keyboard-response,,
12,condition1,,,,,,0.0-6.0-0.175,,,img2/faces/1.jpg,,258808,,712,image-keyboard-response,,
12,condition1,,,,,,0.0-6.0-1.175,,,+,,259119,,713,html-keyboard-response,,
12,condition1,,,,,,0.0-6.0-2.175,,,img2/faces/1.jpg,,259338,,714,image-keyboard-response,,
12,condition1,S,H,,,,0.0-6.0-3.175,s,285,"Press S if the two images were the same, Press D if the two images were different.",,259623,,715,html-keyboard-response,,
12,condition1,,,,,,0.0-6.0-0.176,,,img2/faces/8.jpg,,259838,,716,image-keyboard-response,,
12,condition1,,,,,,0.0-6.0-1.176,,,+,,260148,,717,html-keyboard-response,,
12,condition1,,,,,,0.0-6.0-2.176,,,img2/Mfaces/8.jpg,,260366,,718,image-keyboard-response,,
12,condition1,S,H,,,,0.0-6.0-3.176,d,297,"Press S if the two images were the same, Press D if the two images were different.",,260663,,719,html-keyboard-response,,
12,condition1,,,,,,0.0-6.0-0.177,,,img2/Mjap/6.jpg,,260882,,720,image-keyboard-response,,
12,condition1,,,,,,0.0-6.0-1.177,,,+,,261194,,721,html-keyboard-response,,
12,condition1,,,,,,0.0-6.0-2.177,,,img2/Mjap/5.jpg,,261413,,722,image-keyboard-response,,
12,condition1,D,J,,,,0.0-6.0-3.177,d,579,"Press S if the two images were the same, Press D if the two images were different.",,261992,,723,html-keyboard-response,,
12,condition1,,,,,,0.0-6.0-0.178,,,img2/french/2.jpg,,262207,,724,image-keyboard-response,,
12,condition1,,,,,,0.0-6.0-1.178,,,+,,262518,,725,html-keyboard-response,,
12,condition1,,,,,,0.0-6.0-2.178,,,img2/Mfrench/2.jpg,,262735,,726,image-keyboard-response,,
12,condition1,S,R,,,,0.0-6.0-3.178,d,368,"Press S if the two images were the same, Press D if the two images were different.",,263103,,727,html-keyboard-response,,
12,condition1,,,,,,0.0-6.0-0.179,,,img2/tools/9.jpg,,263311,,728,image-keyboard-response,,
12,condition1,,,,,,0.0-6.0-1.179,,,+,,263622,,729,html-keyboard-response,,
12,condition1,,,,,,0.0-6.0-2.179,,,img2/Mtools/9.jpg,,263840,,730,image-keyboard-response,,
12,condition1,S,O,,,,0.0-6.0-3.179,d,383,"Press S if the two images were the same, Press D if the two images were different.",,264223,,731,html-keyboard-response,,
12,condition1,,,,,,0.0-6.0-0.180,,,img2/french/5.jpg,,264432,,732,image-keyboard-response,,
12,condition1,,,,,,0.0-6.0-1.180,,,+,,264743,,733,html-keyboard-response,,
12,condition1,,,,,,0.0-6.0-2.180,,,img2/french/6.jpg,,264961,,734,image-keyboard-response,,
12,condition1,D,R,,,,0.0-6.0-3.180,d,358,"Press S if the two images were the same, Press D if the two images were different.",,265320,,735,html-keyboard-response,,
12,condition1,,,,,,0.0-6.0-0.181,,,img2/tools/14.jpg,,265537,,736,image-keyboard-response,,
12,condition1,,,,,,0.0-6.0-1.181,,,+,,265849,,737,html-keyboard-response,,
12,condition1,,,,,,0.0-6.0-2.181,,,img2/Mtools/14.jpg,,266053,,738,image-keyboard-response,,
12,condition1,S,O,,,,0.0-6.0-3.181,d,419,"Press S if the two images were the same, Press D if the two images were different.",,266471,,739,html-keyboard-response,,
12,condition1,,,,,,0.0-6.0-0.182,,,img2/french/12.jpg,,266676,,740,image-keyboard-response,,
12,condition1,,,,,,0.0-6.0-1.182,,,+,,266988,,741,html-keyboard-response,,
12,condition1,,,,,,0.0-6.0-2.182,,,img2/french/9.jpg,,267205,,742,image-keyboard-response,,
12,condition1,D,R,,,,0.0-6.0-3.182,d,403,"Press S if the two images were the same, Press D if the two images were different.",,267608,,743,html-keyboard-response,,
12,condition1,,,,,,0.0-6.0-0.183,,,img2/faces/13.jpg,,267827,,744,image-keyboard-response,,
12,condition1,,,,,,0.0-6.0-1.183,,,+,,268136,,745,html-keyboard-response,,
12,condition1,,,,,,0.0-6.0-2.183,,,img2/faces/13.jpg,,268354,,746,image-keyboard-response,,
12,condition1,S,H,,,,0.0-6.0-3.183,s,293,"Press S if the two images were the same, Press D if the two images were different.",,268647,,747,html-keyboard-response,,
12,condition1,,,,,,0.0-6.0-0.184,,,img2/false/11.jpg,,268867,,748,image-keyboard-response,,
12,condition1,,,,,,0.0-6.0-1.184,,,+,,269183,,749,html-keyboard-response,,
12,condition1,,,,,,0.0-6.0-2.184,,,img2/false/3.jpg,,269400,,750,image-keyboard-response,,
12,condition1,D,M,,,,0.0-6.0-3.184,d,232,"Press S if the two images were the same, Press D if the two images were different.",,269632,,751,html-keyboard-response,,
12,condition1,,,,,,0.0-6.0-0.185,,,img2/tools/10.jpg,,269850,,752,image-keyboard-response,,
12,condition1,,,,,,0.0-6.0-1.185,,,+,,270161,,753,html-keyboard-response,,
12,condition1,,,,,,0.0-6.0-2.185,,,img2/Mtools/10.jpg,,270378,,754,image-keyboard-response,,
12,condition1,S,O,,,,0.0-6.0-3.185,s,285,"Press S if the two images were the same, Press D if the two images were different.",,270663,,755,html-keyboard-response,,
12,condition1,,,,,,0.0-6.0-0.186,,,img2/jap/2.jpg,,270877,,756,image-keyboard-response,,
12,condition1,,,,,,0.0-6.0-1.186,,,+,,271188,,757,html-keyboard-response,,
12,condition1,,,,,,0.0-6.0-2.186,,,img2/jap/11.jpg,,271406,,758,image-keyboard-response,,
12,condition1,D,J,,,,0.0-6.0-3.186,d,337,"Press S if the two images were the same, Press D if the two images were different.",,271743,,759,html-keyboard-response,,
12,condition1,,,,,,0.0-6.0-0.187,,,img2/faces/11.jpg,,271951,,760,image-keyboard-response,,
12,condition1,,,,,,0.0-6.0-1.187,,,+,,272261,,761,html-keyboard-response,,
12,condition1,,,,,,0.0-6.0-2.187,,,img2/Mfaces/11.jpg,,272479,,762,image-keyboard-response,,
12,condition1,S,H,,,,0.0-6.0-3.187,s,1273,"Press S if the two images were the same, Press D if the two images were different.",,273751,,763,html-keyboard-response,,
12,condition1,,,,,,0.0-6.0-0.188,,,img2/faces/10.jpg,,273962,,764,image-keyboard-response,,
12,condition1,,,,,,0.0-6.0-1.188,,,+,,274277,,765,html-keyboard-response,,
12,condition1,,,,,,0.0-6.0-2.188,,,img2/faces/10.jpg,,274493,,766,image-keyboard-response,,
12,condition1,S,H,,,,0.0-6.0-3.188,s,346,"Press S if the two images were the same, Press D if the two images were different.",,274839,,767,html-keyboard-response,,
12,condition1,,,,,,0.0-6.0-0.189,,,img2/jap/6.jpg,,275059,,768,image-keyboard-response,,
12,condition1,,,,,,0.0-6.0-1.189,,,+,,275370,,769,html-keyboard-response,,
12,condition1,,,,,,0.0-6.0-2.189,,,img2/jap/5.jpg,,275571,,770,image-keyboard-response,,
12,condition1,D,J,,,,0.0-6.0-3.189,d,412,"Press S if the two images were the same, Press D if the two images were different.",,275984,,771,html-keyboard-response,,
12,condition1,,,,,,0.0-6.0-0.190,,,img2/tools/4.jpg,,276194,,772,image-keyboard-response,,
12,condition1,,,,,,0.0-6.0-1.190,,,+,,276505,,773,html-keyboard-response,,
12,condition1,,,,,,0.0-6.0-2.190,,,img2/tools/4.jpg,,276726,,774,image-keyboard-response,,
12,condition1,S,O,,,,0.0-6.0-3.190,s,425,"Press S if the two images were the same, Press D if the two images were different.",,277151,,775,html-keyboard-response,,
12,condition1,,,,,,0.0-6.0-0.191,,,img2/Mfalse/3.jpg,,277361,,776,image-keyboard-response,,
12,condition1,,,,,,0.0-6.0-1.191,,,+,,277672,,777,html-keyboard-response,,
12,condition1,,,,,,0.0-6.0-2.191,,,img2/Mfalse/4.jpg,,277890,,778,image-keyboard-response,,
12,condition1,D,M,,,,0.0-6.0-3.191,d,574,"Press S if the two images were the same, Press D if the two images were different.",,278464,,779,html-keyboard-response,,
12,condition1,,,,,,0.0-6.0-0.192,,,img2/faces/7.jpg,,278682,,780,image-keyboard-response,,
12,condition1,,,,,,0.0-6.0-1.192,,,+,,278991,,781,html-keyboard-response,,
12,condition1,,,,,,0.0-6.0-2.192,,,img2/faces/10.jpg,,279207,,782,image-keyboard-response,,
12,condition1,D,H,,,,0.0-6.0-3.192,d,592,"Press S if the two images were the same, Press D if the two images were different.",,279799,,783,html-keyboard-response,,
12,condition1,,,,,,0.0-6.0-0.193,,,img2/jap/13.jpg,,280018,,784,image-keyboard-response,,
12,condition1,,,,,,0.0-6.0-1.193,,,+,,280330,,785,html-keyboard-response,,
12,condition1,,,,,,0.0-6.0-2.193,,,img2/jap/13.jpg,,280547,,786,image-keyboard-response,,
12,condition1,S,J,,,,0.0-6.0-3.193,s,340,"Press S if the two images were the same, Press D if the two images were different.",,280887,,787,html-keyboard-response,,
12,condition1,,,,,,0.0-6.0-0.194,,,img2/french/12.jpg,,281093,,788,image-keyboard-response,,
12,condition1,,,,,,0.0-6.0-1.194,,,+,,281404,,789,html-keyboard-response,,
12,condition1,,,,,,0.0-6.0-2.194,,,img2/french/12.jpg,,281623,,790,image-keyboard-response,,
12,condition1,S,R,,,,0.0-6.0-3.194,s,328,"Press S if the two images were the same, Press D if the two images were different.",,281951,,791,html-keyboard-response,,
12,condition1,,,,,,0.0-6.0-0.195,,,img2/Mfalse/10.jpg,,282169,,792,image-keyboard-response,,
12,condition1,,,,,,0.0-6.0-1.195,,,+,,282481,,793,html-keyboard-response,,
12,condition1,,,,,,0.0-6.0-2.195,,,img2/Mfalse/14.jpg,,282684,,794,image-keyboard-response,,
12,condition1,D,M,,,,0.0-6.0-3.195,d,291,"Press S if the two images were the same, Press D if the two images were different.",,282975,,795,html-keyboard-response,,
12,condition1,,,,,,0.0-6.0-0.196,,,img2/faces/10.jpg,,283181,,796,image-keyboard-response,,
12,condition1,,,,,,0.0-6.0-1.196,,,+,,283493,,797,html-keyboard-response,,
12,condition1,,,,,,0.0-6.0-2.196,,,img2/faces/14.jpg,,283710,,798,image-keyboard-response,,
12,condition1,D,H,,,,0.0-6.0-3.196,d,1209,"Press S if the two images were the same, Press D if the two images were different.",,284919,,799,html-keyboard-response,,
12,condition1,,,,,,0.0-6.0-0.197,,,img2/Mfaces/10.jpg,,285128,,800,image-keyboard-response,,
12,condition1,,,,,,0.0-6.0-1.197,,,+,,285440,,801,html-keyboard-response,,
12,condition1,,,,,,0.0-6.0-2.197,,,img2/Mfaces/14.jpg,,285659,,802,image-keyboard-response,,
12,condition1,D,H,,,,0.0-6.0-3.197,d,493,"Press S if the two images were the same, Press D if the two images were different.",,286152,,803,html-keyboard-response,,
12,condition1,,,,,,0.0-6.0-0.198,,,img2/Mfaces/11.jpg,,286356,,804,image-keyboard-response,,
12,condition1,,,,,,0.0-6.0-1.198,,,+,,286668,,805,html-keyboard-response,,
12,condition1,,,,,,0.0-6.0-2.198,,,img2/Mfaces/3.jpg,,286886,,806,image-keyboard-response,,
12,condition1,D,H,,,,0.0-6.0-3.198,d,192,"Press S if the two images were the same, Press D if the two images were different.",,287079,,807,html-keyboard-response,,
12,condition1,,,,,,0.0-6.0-0.199,,,img2/false/6.jpg,,287292,,808,image-keyboard-response,,
12,condition1,,,,,,0.0-6.0-1.199,,,+,,287604,,809,html-keyboard-response,,
12,condition1,,,,,,0.0-6.0-2.199,,,img2/Mfalse/6.jpg,,287822,,810,image-keyboard-response,,
12,condition1,S,M,,,,0.0-6.0-3.199,s,793,"Press S if the two images were the same, Press D if the two images were different.",,288616,,811,html-keyboard-response,,
12,condition1,,,,,,0.0-6.0-0.200,,,img2/french/9.jpg,,288834,,812,image-keyboard-response,,
12,condition1,,,,,,0.0-6.0-1.200,,,+,,289145,,813,html-keyboard-response,,
12,condition1,,,,,,0.0-6.0-2.200,,,img2/french/9.jpg,,289347,,814,image-keyboard-response,,
12,condition1,S,R,,,,0.0-6.0-3.200,s,284,"Press S if the two images were the same, Press D if the two images were different.",,289632,,815,html-keyboard-response,,
12,condition1,,,,,,0.0-6.0-0.201,,,img2/Mfaces/5.jpg,,289849,,816,image-keyboard-response,,
12,condition1,,,,,,0.0-6.0-1.201,,,+,,290159,,817,html-keyboard-response,,
12,condition1,,,,,,0.0-6.0-2.201,,,img2/Mfaces/6.jpg,,290376,,818,image-keyboard-response,,
12,condition1,D,H,,,,0.0-6.0-3.201,d,399,"Press S if the two images were the same, Press D if the two images were different.",,290775,,819,html-keyboard-response,,
12,condition1,,,,,,0.0-6.0-0.202,,,img2/false/14.jpg,,290985,,820,image-keyboard-response,,
12,condition1,,,,,,0.0-6.0-1.202,,,+,,291298,,821,html-keyboard-response,,
12,condition1,,,,,,0.0-6.0-2.202,,,img2/false/12.jpg,,291501,,822,image-keyboard-response,,
12,condition1,D,M,,,,0.0-6.0-3.202,d,443,"Press S if the two images were the same, Press D if the two images were different.",,291944,,823,html-keyboard-response,,
12,condition1,,,,,,0.0-6.0-0.203,,,img2/false/13.jpg,,292168,,824,image-keyboard-response,,
12,condition1,,,,,,0.0-6.0-1.203,,,+,,292477,,825,html-keyboard-response,,
12,condition1,,,,,,0.0-6.0-2.203,,,img2/false/13.jpg,,292696,,826,image-keyboard-response,,
12,condition1,S,M,,,,0.0-6.0-3.203,s,327,"Press S if the two images were the same, Press D if the two images were different.",,293023,,827,html-keyboard-response,,
12,condition1,,,,,,0.0-6.0-0.204,,,img2/french/14.jpg,,293229,,828,image-keyboard-response,,
12,condition1,,,,,,0.0-6.0-1.204,,,+,,293541,,829,html-keyboard-response,,
12,condition1,,,,,,0.0-6.0-2.204,,,img2/french/14.jpg,,293759,,830,image-keyboard-response,,
12,condition1,S,R,,,,0.0-6.0-3.204,s,624,"Press S if the two images were the same, Press D if the two images were different.",,294383,,831,html-keyboard-response,,
12,condition1,,,,,,0.0-6.0-0.205,,,img2/faces/4.jpg,,294598,,832,image-keyboard-response,,
12,condition1,,,,,,0.0-6.0-1.205,,,+,,294911,,833,html-keyboard-response,,
12,condition1,,,,,,0.0-6.0-2.205,,,img2/faces/12.jpg,,295116,,834,image-keyboard-response,,
12,condition1,D,H,,,,0.0-6.0-3.205,d,235,"Press S if the two images were the same, Press D if the two images were different.",,295351,,835,html-keyboard-response,,
12,condition1,,,,,,0.0-6.0-0.206,,,img2/tools/8.jpg,,295567,,836,image-keyboard-response,,
12,condition1,,,,,,0.0-6.0-1.206,,,+,,295879,,837,html-keyboard-response,,
12,condition1,,,,,,0.0-6.0-2.206,,,img2/tools/8.jpg,,296099,,838,image-keyboard-response,,
12,condition1,S,O,,,,0.0-6.0-3.206,s,468,"Press S if the two images were the same, Press D if the two images were different.",,296567,,839,html-keyboard-response,,
12,condition1,,,,,,0.0-6.0-0.207,,,img2/tools/6.jpg,,296786,,840,image-keyboard-response,,
12,condition1,,,,,,0.0-6.0-1.207,,,+,,297096,,841,html-keyboard-response,,
12,condition1,,,,,,0.0-6.0-2.207,,,img2/Mtools/6.jpg,,297303,,842,image-keyboard-response,,
12,condition1,S,O,,,,0.0-6.0-3.207,d,256,"Press S if the two images were the same, Press D if the two images were different.",,297559,,843,html-keyboard-response,,
12,condition1,,,,,,0.0-6.0-0.208,,,img2/Mfrench/5.jpg,,297770,,844,image-keyboard-response,,
12,condition1,,,,,,0.0-6.0-1.208,,,+,,298080,,845,html-keyboard-response,,
12,condition1,,,,,,0.0-6.0-2.208,,,img2/Mfrench/6.jpg,,298284,,846,image-keyboard-response,,
12,condition1,D,R,,,,0.0-6.0-3.208,d,339,"Press S if the two images were the same, Press D if the two images were different.",,298623,,847,html-keyboard-response,,
12,condition1,,,,,,0.0-6.0-0.209,,,img2/tools/2.jpg,,298845,,848,image-keyboard-response,,
12,condition1,,,,,,0.0-6.0-1.209,,,+,,299158,,849,html-keyboard-response,,
12,condition1,,,,,,0.0-6.0-2.209,,,img2/tools/2.jpg,,299376,,850,image-keyboard-response,,
12,condition1,S,O,,,,0.0-6.0-3.209,s,200,"Press S if the two images were the same, Press D if the two images were different.",,299576,,851,html-keyboard-response,,
12,condition1,,,,,,0.0-6.0-0.210,,,img2/french/3.jpg,,299782,,852,image-keyboard-response,,
12,condition1,,,,,,0.0-6.0-1.210,,,+,,300094,,853,html-keyboard-response,,
12,condition1,,,,,,0.0-6.0-2.210,,,img2/Mfrench/3.jpg,,300294,,854,image-keyboard-response,,
12,condition1,S,R,,,,0.0-6.0-3.210,d,304,"Press S if the two images were the same, Press D if the two images were different.",,300599,,855,html-keyboard-response,,
12,condition1,,,,,,0.0-6.0-0.211,,,img2/false/14.jpg,,300809,,856,image-keyboard-response,,
12,condition1,,,,,,0.0-6.0-1.211,,,+,,301123,,857,html-keyboard-response,,
12,condition1,,,,,,0.0-6.0-2.211,,,img2/false/14.jpg,,301341,,858,image-keyboard-response,,
12,condition1,S,M,,,,0.0-6.0-3.211,s,290,"Press S if the two images were the same, Press D if the two images were different.",,301631,,859,html-keyboard-response,,
12,condition1,,,,,,0.0-6.0-0.212,,,img2/faces/8.jpg,,301840,,860,image-keyboard-response,,
12,condition1,,,,,,0.0-6.0-1.212,,,+,,302154,,861,html-keyboard-response,,
12,condition1,,,,,,0.0-6.0-2.212,,,img2/faces/8.jpg,,302370,,862,image-keyboard-response,,
12,condition1,S,H,,,,0.0-6.0-3.212,s,309,"Press S if the two images were the same, Press D if the two images were different.",,302679,,863,html-keyboard-response,,
12,condition1,,,,,,0.0-6.0-0.213,,,img2/faces/3.jpg,,302885,,864,image-keyboard-response,,
12,condition1,,,,,,0.0-6.0-1.213,,,+,,303197,,865,html-keyboard-response,,
12,condition1,,,,,,0.0-6.0-2.213,,,img2/faces/4.jpg,,303415,,866,image-keyboard-response,,
12,condition1,D,H,,,,0.0-6.0-3.213,d,200,"Press S if the two images were the same, Press D if the two images were different.",,303615,,867,html-keyboard-response,,
12,condition1,,,,,,0.0-6.0-0.214,,,img2/jap/1.jpg,,303819,,868,image-keyboard-response,,
12,condition1,,,,,,0.0-6.0-1.214,,,+,,304136,,869,html-keyboard-response,,
12,condition1,,,,,,0.0-6.0-2.214,,,img2/jap/4.jpg,,304349,,870,image-keyboard-response,,
12,condition1,D,J,,,,0.0-6.0-3.214,d,418,"Press S if the two images were the same, Press D if the two images were different.",,304767,,871,html-keyboard-response,,
12,condition1,,,,,,0.0-6.0-0.215,,,img2/faces/9.jpg,,304975,,872,image-keyboard-response,,
12,condition1,,,,,,0.0-6.0-1.215,,,+,,305285,,873,html-keyboard-response,,
12,condition1,,,,,,0.0-6.0-2.215,,,img2/faces/9.jpg,,305504,,874,image-keyboard-response,,
12,condition1,S,H,,,,0.0-6.0-3.215,s,463,"Press S if the two images were the same, Press D if the two images were different.",,305967,,875,html-keyboard-response,,
12,condition1,,,,,,0.0-6.0-0.216,,,img2/french/3.jpg,,306174,,876,image-keyboard-response,,
12,condition1,,,,,,0.0-6.0-1.216,,,+,,306484,,877,html-keyboard-response,,
12,condition1,,,,,,0.0-6.0-2.216,,,img2/french/3.jpg,,306703,,878,image-keyboard-response,,
12,condition1,S,R,,,,0.0-6.0-3.216,d,1368,"Press S if the two images were the same, Press D if the two images were different.",,308071,,879,html-keyboard-response,,
12,condition1,,,,,,0.0-6.0-0.217,,,img2/Mfrench/2.jpg,,308293,,880,image-keyboard-response,,
12,condition1,,,,,,0.0-6.0-1.217,,,+,,308606,,881,html-keyboard-response,,
12,condition1,,,,,,0.0-6.0-2.217,,,img2/Mfrench/11.jpg,,308825,,882,image-keyboard-response,,
12,condition1,D,R,,,,0.0-6.0-3.217,d,326,"Press S if the two images were the same, Press D if the two images were different.",,309151,,883,html-keyboard-response,,
12,condition1,,,,,,0.0-6.0-0.218,,,img2/Mfalse/14.jpg,,309355,,884,image-keyboard-response,,
12,condition1,,,,,,0.0-6.0-1.218,,,+,,309667,,885,html-keyboard-response,,
12,condition1,,,,,,0.0-6.0-2.218,,,img2/Mfalse/12.jpg,,309883,,886,image-keyboard-response,,
12,condition1,D,M,,,,0.0-6.0-3.218,d,212,"Press S if the two images were the same, Press D if the two images were different.",,310095,,887,html-keyboard-response,,
12,condition1,,,,,,0.0-6.0-0.219,,,img2/Mtools/6.jpg,,310307,,888,image-keyboard-response,,
12,condition1,,,,,,0.0-6.0-1.219,,,+,,310619,,889,html-keyboard-response,,
12,condition1,,,,,,0.0-6.0-2.219,,,img2/Mtools/5.jpg,,310840,,890,image-keyboard-response,,
12,condition1,D,O,,,,0.0-6.0-3.219,d,207,"Press S if the two images were the same, Press D if the two images were different.",,311047,,891,html-keyboard-response,,
12,condition1,,,,,,0.0-6.0-0.220,,,img2/faces/6.jpg,,311261,,892,image-keyboard-response,,
12,condition1,,,,,,0.0-6.0-1.220,,,+,,311572,,893,html-keyboard-response,,
12,condition1,,,,,,0.0-6.0-2.220,,,img2/faces/5.jpg,,311791,,894,image-keyboard-response,,
12,condition1,D,H,,,,0.0-6.0-3.220,d,400,"Press S if the two images were the same, Press D if the two images were different.",,312191,,895,html-keyboard-response,,
12,condition1,,,,,,0.0-6.0-0.221,,,img2/Mfrench/11.jpg,,312397,,896,image-keyboard-response,,
12,condition1,,,,,,0.0-6.0-1.221,,,+,,312710,,897,html-keyboard-response,,
12,condition1,,,,,,0.0-6.0-2.221,,,img2/Mfrench/3.jpg,,312916,,898,image-keyboard-response,,
12,condition1,D,R,,,,0.0-6.0-3.221,d,242,"Press S if the two images were the same, Press D if the two images were different.",,313159,,899,html-keyboard-response,,
12,condition1,,,,,,0.0-6.0-0.222,,,img2/false/7.jpg,,313371,,900,image-keyboard-response,,
12,condition1,,,,,,0.0-6.0-1.222,,,+,,313683,,901,html-keyboard-response,,
12,condition1,,,,,,0.0-6.0-2.222,,,img2/false/10.jpg,,313903,,902,image-keyboard-response,,
12,condition1,D,M,,,,0.0-6.0-3.222,d,217,"Press S if the two images were the same, Press D if the two images were different.",,314120,,903,html-keyboard-response,,
12,condition1,,,,,,0.0-6.0-0.223,,,img2/french/9.jpg,,314339,,904,image-keyboard-response,,
12,condition1,,,,,,0.0-6.0-1.223,,,+,,314653,,905,html-keyboard-response,,
12,condition1,,,,,,0.0-6.0-2.223,,,img2/french/4.jpg,,314871,,906,image-keyboard-response,,
12,condition1,D,R,,,,0.0-6.0-3.223,d,200,"Press S if the two images were the same, Press D if the two images were different.",,315072,,907,html-keyboard-response,,
12,condition1,,,,,,0.0-6.0-0.224,,,img2/Mjap/4.jpg,,315275,,908,image-keyboard-response,,
12,condition1,,,,,,0.0-6.0-1.224,,,+,,315585,,909,html-keyboard-response,,
12,condition1,,,,,,0.0-6.0-2.224,,,img2/Mjap/12.jpg,,315802,,910,image-keyboard-response,,
12,condition1,D,J,,,,0.0-6.0-3.224,d,364,"Press S if the two images were the same, Press D if the two images were different.",,316167,,911,html-keyboard-response,,
12,condition1,,,,,,0.0-6.0-0.225,,,img2/Mtools/9.jpg,,316379,,912,image-keyboard-response,,
12,condition1,,,,,,0.0-6.0-1.225,,,+,,316688,,913,html-keyboard-response,,
12,condition1,,,,,,0.0-6.0-2.225,,,img2/Mtools/4.jpg,,316905,,914,image-keyboard-response,,
12,condition1,D,O,,,,0.0-6.0-3.225,d,254,"Press S if the two images were the same, Press D if the two images were different.",,317159,,915,html-keyboard-response,,
12,condition1,,,,,,0.0-6.0-0.226,,,img2/Mtools/13.jpg,,317374,,916,image-keyboard-response,,
12,condition1,,,,,,0.0-6.0-1.226,,,+,,317688,,917,html-keyboard-response,,
12,condition1,,,,,,0.0-6.0-2.226,,,img2/Mtools/1.jpg,,317905,,918,image-keyboard-response,,
12,condition1,D,O,,,,0.0-6.0-3.226,d,549,"Press S if the two images were the same, Press D if the two images were different.",,318455,,919,html-keyboard-response,,
12,condition1,,,,,,0.0-6.0-0.227,,,img2/tools/2.jpg,,318668,,920,image-keyboard-response,,
12,condition1,,,,,,0.0-6.0-1.227,,,+,,318979,,921,html-keyboard-response,,
12,condition1,,,,,,0.0-6.0-2.227,,,img2/tools/11.jpg,,319200,,922,image-keyboard-response,,
12,condition1,D,O,,,,0.0-6.0-3.227,d,431,"Press S if the two images were the same, Press D if the two images were different.",,319631,,923,html-keyboard-response,,
12,condition1,,,,,,0.0-6.0-0.228,,,img2/jap/14.jpg,,319837,,924,image-keyboard-response,,
12,condition1,,,,,,0.0-6.0-1.228,,,+,,320148,,925,html-keyboard-response,,
12,condition1,,,,,,0.0-6.0-2.228,,,img2/Mjap/14.jpg,,320367,,926,image-keyboard-response,,
12,condition1,S,J,,,,0.0-6.0-3.228,d,289,"Press S if the two images were the same, Press D if the two images were different.",,320656,,927,html-keyboard-response,,
12,condition1,,,,,,0.0-6.0-0.229,,,img2/french/13.jpg,,320864,,928,image-keyboard-response,,
12,condition1,,,,,,0.0-6.0-1.229,,,+,,321177,,929,html-keyboard-response,,
12,condition1,,,,,,0.0-6.0-2.229,,,img2/Mfrench/13.jpg,,321379,,930,image-keyboard-response,,
12,condition1,S,R,,,,0.0-6.0-3.229,d,571,"Press S if the two images were the same, Press D if the two images were different.",,321951,,931,html-keyboard-response,,
12,condition1,,,,,,0.0-6.0-0.230,,,img2/Mfaces/2.jpg,,322159,,932,image-keyboard-response,,
12,condition1,,,,,,0.0-6.0-1.230,,,+,,322471,,933,html-keyboard-response,,
12,condition1,,,,,,0.0-6.0-2.230,,,img2/Mfaces/11.jpg,,322672,,934,image-keyboard-response,,
12,condition1,D,H,,,,0.0-6.0-3.230,d,751,"Press S if the two images were the same, Press D if the two images were different.",,323423,,935,html-keyboard-response,,
12,condition1,,,,,,0.0-6.0-0.231,,,img2/Mfalse/6.jpg,,323636,,936,image-keyboard-response,,
12,condition1,,,,,,0.0-6.0-1.231,,,+,,323945,,937,html-keyboard-response,,
12,condition1,,,,,,0.0-6.0-2.231,,,img2/Mfalse/5.jpg,,324162,,938,image-keyboard-response,,
12,condition1,D,M,,,,0.0-6.0-3.231,d,405,"Press S if the two images were the same, Press D if the two images were different.",,324567,,939,html-keyboard-response,,
12,condition1,,,,,,0.0-6.0-0.232,,,img2/tools/1.jpg,,324786,,940,image-keyboard-response,,
12,condition1,,,,,,0.0-6.0-1.232,,,+,,325098,,941,html-keyboard-response,,
12,condition1,,,,,,0.0-6.0-2.232,,,img2/tools/4.jpg,,325301,,942,image-keyboard-response,,
